Elapsed Time (s),QUATERNION 0,QUATERNION 1,QUATERNION 2,QUATERNION 3,Linear Accel X (m/s),Linear Accel Y (m/s),Linear Accel Z (m/s),Magnometer X,Magnometer Y,Magnometer Z,Roll (deg),Pitch (deg),Yaw (deg),IMU Heading (deg from N),Latitude (+/- = North/South),Longitude (+/- = East/West),GPS Heading (deg from N),Speed (m/s)
2.207096815109253,-0.5124017952,-0.1613340558,-0.11457202089999999,0.8356405848999999,0.09191871,0.01208493,-0.99206289,-0.581970632,-0.049133336,0.11749276,-1.6259724,22.7745999,-117.2897388,175.17420192281622,29.73489761352539,-91.2060546875,nan,0.0
2.3081889152526855,-0.5122675179999999,-0.1619383032,-0.113799927,0.8357077234999999,0.09191871,0.01208493,-1.007993025,-0.578918872,-0.049133336,0.12054452,-1.5161094,22.785586199999997,-117.2897388,175.14888390469844,29.73489761352539,-91.2060546875,nan,0.0
2.4095330238342285,-0.5120996714999999,-0.16247541199999999,-0.11336352609999999,0.8357412928,0.09191871,0.01208493,-0.964047825,-0.584717216,-0.049133336,0.11749276,-1.4392052999999998,22.8075588,-117.2897388,175.19676377179371,29.73489761352539,-91.2060546875,nan,0.0
2.510291814804077,-0.511931825,-0.16304609009999999,-0.1129942638,0.8358084313999999,0.09997533,0.023986755000000002,-0.99206289,-0.573425704,-0.049133336,0.11749276,-1.3623011999999999,22.8405177,-117.3007251,175.10263728233997,29.73489761352539,-91.2060546875,nan,0.0
2.6119019985198975,-0.5118311171,-0.16358319889999998,-0.1125914322,0.8358420006999999,0.10400364000000001,0.043945200000000004,-0.99206289,-0.573425704,-0.049133336,0.12054452,-1.2853971,22.8734766,-117.3007251,175.10263728233997,29.73489761352539,-91.2060546875,nan,0.0
2.7121739387512207,-0.511596132,-0.16415387699999998,-0.11222216989999999,0.8359091392999999,0.11206026,0.023986755000000002,-1.007993025,-0.576477464,-0.043334991999999996,0.11749276,-1.2194793,22.906435499999997,-117.3117114,175.70104427170736,29.73489761352539,-91.2060546875,nan,0.0
2.8162949085235596,-0.5114282855,-0.1645567086,-0.1116850611,0.8359762779,0.123962085,-0.00805662,-1.012021335,-0.576172288,-0.049438512,0.127258392,-1.1425752,22.9174218,-117.32269769999999,175.09574312779819,29.73489761352539,-91.2060546875,nan,0.0
2.9597058296203613,-0.5109918846,-0.16613446569999998,-0.1101408733,0.8361441244,0.140075325,0.0,-1.02392316,-0.573425704,-0.043334991999999996,0.11749276,-0.8898902999999999,22.983339599999997,-117.32269769999999,175.67825176930387,29.73489761352539,-91.2060546875,nan,0.0
3.0653347969055176,-0.5103204986,-0.16717511399999999,-0.10873096269999999,0.8355734463,0.088073505,0.023986755000000002,-1.016049645,-0.5792240479999999,-0.043334991999999996,0.11749276,-0.7031232,23.0053122,-117.3007251,175.72135332384369,29.73489761352539,-91.2060546875,nan,0.0
3.1654999256134033,-0.5105554836999999,-0.1680143465,-0.1078917302,0.8363455402,0.119933775,0.023986755000000002,-1.003964715,-0.581970632,-0.034484888,0.123901456,-0.5603013,23.027284799999997,-117.3117114,176.60888235686821,29.73489761352539,-91.2060546875,nan,0.0
3.267169952392578,-0.5104547758,-0.169524965,-0.10775745299999999,0.8365805252999999,0.13201870500000001,0.0,-1.24401537,-0.581970632,-0.037231472,0.11749276,-0.47241089999999997,23.214051899999998,-117.3007251,176.33950070290393,29.734895706176758,-91.20604705810547,nan,0.0
3.3636410236358643,-0.5106561916,-0.1711027221,-0.1077910223,0.8356741541999999,0.283995855,0.067931955,-1.116024975,-0.576477464,-0.034484888,0.11749276,-0.34057529999999997,23.334901199999997,-117.21283469999999,176.57664538939071,29.734895706176758,-91.20604705810547,nan,0.0
3.468634843826294,-0.5117639785,-0.17274761779999998,-0.10809314599999999,0.8346335059,0.171935595,0.084045195,-1.04406471,-0.584717216,-0.034484888,0.123901456,-0.23071229999999998,23.510682,-117.01508129999999,176.62477449351286,29.734895706176758,-91.20604705810547,nan,0.0
3.5703048706054688,-0.5134424435,-0.17435894419999998,-0.10745532929999999,0.8333243032,0.028015065,0.084045195,-0.968076135,-0.584717216,-0.031433128,0.12054452,0.0,23.642517599999998,-116.71845119999999,176.92286522070799,29.734895706176758,-91.20604705810547,nan,0.0
3.6709859371185303,-0.5159265717,-0.17560100829999997,-0.1069853591,0.8315786996,0.16809039,0.071960265,-0.943906275,-0.587768976,-0.028686543999999998,0.123901456,0.20873969999999997,23.730407999999997,-116.3229444,177.2058499303298,29.734895706176758,-91.20604705810547,nan,0.0
3.760180950164795,-0.5189142393999999,-0.17687664169999998,-0.10654895819999999,0.8295309723,0.188048835,0.023986755000000002,-0.943906275,-0.587768976,-0.025634784,0.11749276,0.42846569999999995,23.8292847,-115.8505335,177.50270126494638,29.734895706176758,-91.20604705810547,nan,0.0
3.9195969104766846,-0.5241846195,-0.1788907997,-0.10587757219999999,0.8258383492999999,0.24792417,0.019958445000000002,-0.899961075,-0.587768976,-0.01983644,0.12054452,0.7910136,23.9830929,-115.02656099999999,178.06707544098742,29.734895706176758,-91.20604705810547,nan,0.0
4.024457931518555,-0.5277765346,-0.1798307401,-0.10564258709999999,0.8223471420999999,0.275939235,-0.028015065,-0.912046005,-0.5905155599999999,-0.017089856,0.123901456,0.988767,24.0270381,-114.40034189999999,178.34229027484548,29.734895706176758,-91.20604705810547,nan,0.0
4.124840021133423,-0.5329797760999999,-0.18033427959999998,-0.10567615639999998,0.8198965831999999,0.136047015,0.01208493,-0.88000263,-0.588074152,-0.007934576,0.12054452,1.1865203999999998,24.1039422,-113.6972187,179.22698501329239,29.734895706176758,-91.20604705810547,nan,0.0
4.225927829742432,-0.5373437850999999,-0.17986430939999998,-0.10574329499999999,0.8158346979,0.047973510000000004,0.015930135,-0.8519875650000001,-0.588074152,-0.0076294,0.114135824,1.2963833999999999,24.070983299999998,-112.98310919999999,179.25671295661527,29.73488998413086,-91.20604705810547,nan,0.0
4.32714581489563,-0.5436548135,-0.17919292339999998,-0.10631397309999999,0.8130484459999999,0.16003377,0.071960265,-0.93200445,-0.588074152,-0.001831056,0.11077888799999999,1.3842737999999999,24.0160518,-112.17012299999999,179.82160167818256,29.73488998413086,-91.20604705810547,nan,0.0
4.428510904312134,-0.5494958716999999,-0.17825298299999998,-0.10671680469999999,0.8092551150999999,0.088073505,0.13201870500000001,-1.151913555,-0.590820736,0.003662112,0.12054452,1.4501916,23.9391477,-111.3351642,180.35513458122807,29.73488998413086,-91.20604705810547,nan,0.0
4.528409957885742,-0.5556054843,-0.17748088909999998,-0.10648181959999999,0.8052603683999999,0.14794884,0.00402831,-0.916074315,-0.588074152,0.001220704,0.114135824,1.6149860999999999,23.840270999999998,-110.44527389999999,180.1189324280669,29.73488998413086,-91.20604705810547,nan,0.0
4.629352807998657,-0.5616815276,-0.17758159699999998,-0.1061796959,0.8010642058999999,0.179992215,-0.047973510000000004,-0.964047825,-0.585327568,0.009765632,0.11749276,1.8456983999999999,23.8182984,-109.53341099999999,180.95583673270161,29.73488998413086,-91.20604705810547,nan,0.0
4.781113862991333,-0.5711816395,-0.17714519609999999,-0.10523975549999999,0.7937125291999999,0.136047015,-0.00805662,-1.07592498,-0.591125912,0.024414079999999998,0.11749276,2.19726,23.686462799999997,-108.0392742,182.3650277744093,29.73488998413086,-91.20604705810547,nan,0.0
4.882383823394775,-0.5786004548,-0.17667522589999998,-0.10450123089999999,0.7893485201999999,0.136047015,0.088073505,-1.1079683550000001,-0.588379328,0.030212423999999998,0.12054452,2.4719175,23.565613499999998,-107.00656199999999,182.93947340526378,29.73488998413086,-91.20604705810547,nan,0.0
4.985099792480469,-0.5851800375999999,-0.1767087952,-0.1034270133,0.7837760163999999,0.119933775,0.01208493,-1.07592498,-0.591431088,0.042114288,0.11749276,2.7795338999999997,23.488709399999998,-105.91891829999999,184.0730104480522,29.73488998413086,-91.20604705810547,nan,0.0
5.081507921218872,-0.5930352538,-0.17701091889999998,-0.10255421149999999,0.7787406213999999,0.140075325,0.043945200000000004,-1.007993025,-0.58593792,0.044860871999999996,0.123901456,3.1420817999999997,23.411805299999997,-104.76535679999999,184.37816678035375,29.73488998413086,-91.20604705810547,nan,0.0
5.18443489074707,-0.5999505296,-0.17791728999999998,-0.10121143949999999,0.7724631622999999,0.19592235,0.047973510000000004,-1.003964715,-0.583191336,0.06256108,0.127258392,3.5705474999999995,23.367860099999998,-103.57883639999999,186.12291391778766,29.734882354736328,-91.20604705810547,135.21922084533975,0.16750765275356308
5.2854650020599365,-0.6082421467,-0.17862224529999998,-0.0995329745,0.7669577970999999,0.15600546,0.084045195,-1.0319797800000001,-0.591736264,0.068359424,0.123901456,4.0319721,23.2689834,-102.3373845,186.58979554297665,29.734882354736328,-91.20604705810547,135.21922084533975,0.16750765275356308
5.4249818325042725,-0.6200585403,-0.1798307401,-0.09708241559999999,0.7574576851999999,0.16003377,0.043945200000000004,-0.98803458,-0.586548272,0.08575445599999999,0.13031015199999998,4.735095299999999,23.137147799999997,-100.42576829999999,188.31781992625827,29.734882354736328,-91.20604705810547,135.21922084533975,0.16750765275356308
5.487074851989746,-0.6241204255999999,-0.1801328638,-0.0959746287,0.7542014630999999,0.175963905,0.080016885,-1.099911735,-0.583801688,0.0915528,0.133667088,4.9877801999999996,23.0492574,-99.76659029999999,188.91263427767714,29.734882354736328,-91.20604705810547,135.21922084533975,0.16750765275356308
5.636354923248291,-0.6360375270999999,-0.1809720963,-0.0933897926,0.7442985195999999,0.192077145,0.05603013,-1.04406471,-0.583801688,0.106506424,0.127258392,5.6799171,22.8405177,-97.8220152,190.33910639447774,29.734882354736328,-91.20604705810547,135.21922084533975,0.16750765275356308
5.74129581451416,-0.6436241889,-0.18124065069999998,-0.0915099118,0.7366447192,0.171935595,0.10400364000000001,-0.864072495,-0.584106864,0.118103112,0.13031015199999998,6.152328,22.6427643,-96.48168659999999,191.43077304705918,29.734882354736328,-91.20604705810547,135.21922084533975,0.16750765275356308
5.836532831192017,-0.6525200534,-0.18147563579999998,-0.089965724,0.7301994136,0.16809039,0.13201870500000001,-1.18798524,-0.581665456,0.13580332,0.133667088,6.5478347999999995,22.4889561,-95.1303717,193.14162436682278,29.734882354736328,-91.20604705810547,135.21922084533975,0.16750765275356308
5.942420959472656,-0.6603417003,-0.18113994279999998,-0.0886565213,0.7222434895,0.080016885,0.06005844,-0.98400627,-0.576172288,0.15045176799999999,0.133667088,6.9103826999999995,22.2912027,-93.7570842,194.63446231088656,29.734882354736328,-91.20604705810547,135.21922084533975,0.16750765275356308
6.027957916259766,-0.6694054113,-0.18134135859999997,-0.08764944229999999,0.7150596592999999,0.179992215,0.0,-0.88000263,-0.581665456,0.156250112,0.137024024,7.2839168999999995,22.126408199999997,-92.3508378,195.0361420322287,29.734882354736328,-91.20604705810547,135.21922084533975,0.16750765275356308
6.144873857498169,-0.6771934889,-0.18080424979999998,-0.08637380889999999,0.7068351808,0.09997533,0.11206026,-0.97594965,-0.5679325359999999,0.17089856,0.137024024,7.6354785,21.9066822,-90.96656399999999,196.74724955798581,29.734882354736328,-91.20604705810547,135.21922084533975,0.16750765275356308
6.241849899291992,-0.6865593235999999,-0.180267141,-0.08523245269999999,0.6992149497,0.00402831,0.088073505,-1.055966535,-0.5737308799999999,0.18005384,0.13031015199999998,7.932108599999999,21.6649836,-89.5273587,197.42341095355312,29.73487663269043,-91.20604705810547,nan,0.0
6.345426797866821,-0.6951194950999999,-0.179260062,-0.0842253737,0.6910576098,0.09997533,0.06005844,-1.059994845,-0.571289472,0.19439711199999998,0.140075784,8.195779799999999,21.4013124,-88.110126,198.79229832348605,29.73487663269043,-91.20604705810547,nan,0.0
6.4468348026275635,-0.7039817903,-0.17805156719999998,-0.08345327979999999,0.6824638689999999,0.127990395,0.075988575,-0.88805925,-0.562744544,0.19439711199999998,0.140075784,8.4374784,21.137641199999997,-86.6489481,199.05719980377356,29.73487663269043,-91.20604705810547,nan,0.0
6.595779895782471,-0.7167716935999999,-0.17630596359999998,-0.08224478499999999,0.6696068271,0.052001820000000004,0.06408675,-1.0319797800000001,-0.560303136,0.21209732,0.14343271999999999,8.7670674,20.7311481,-84.4956333,200.73367420601571,29.73487663269043,-91.20604705810547,nan,0.0
6.700008869171143,-0.7248954642,-0.1750974688,-0.08150626039999999,0.6601402845,0.140075325,0.028015065,-1.020077955,-0.552063384,0.226745768,0.14343271999999999,8.9867934,20.467476899999998,-83.00149649999999,202.32914032368748,29.73487663269043,-91.20604705810547,nan,0.0
6.795557022094727,-0.7339927445,-0.17422466699999997,-0.0804656121,0.6514794050999999,0.11608857,0.039916890000000003,-0.98400627,-0.5493167999999999,0.22949235199999998,0.14343271999999999,9.250464599999999,20.192819399999998,-81.5293323,202.67408806703855,29.73487663269043,-91.20604705810547,nan,0.0
6.901170969009399,-0.7417808221,-0.1729490336,-0.0792906866,0.6420464318,0.219909105,0.019958445000000002,-1.020077955,-0.543823632,0.24719256,0.146789656,9.470190599999999,19.8632304,-80.0791407,204.44395478041653,29.73487663269043,-91.20604705810547,nan,0.0
7.002142906188965,-0.7507438251999999,-0.1714384151,-0.0779814839,0.6331841366,0.119933775,0.071960265,-0.964047825,-0.541382224,0.255737488,0.150146592,9.6899166,19.522655099999998,-78.6179628,205.28505750366202,29.73487663269043,-91.20604705810547,nan,0.0
7.103216886520386,-0.7582297790999999,-0.17022992029999998,-0.0764372961,0.6236840247,0.15600546,0.09191871,-1.064023155,-0.530395888,0.264892768,0.146789656,9.942601499999999,19.171093499999998,-77.17875749999999,206.5386719066062,29.73487663269043,-91.20604705810547,nan,0.0
7.19983983039856,-0.767058505,-0.16912213339999999,-0.07475883109999999,0.6143517593,0.10803195,0.067931955,-1.020077955,-0.527649304,0.270691112,0.150146592,10.195286399999999,18.819531899999998,-75.695607,207.15842698817409,29.734865188598633,-91.20604705810547,nan,0.0
7.303961992263794,-0.7750144291,-0.1677793614,-0.0729460889,0.6050194939,0.244078965,0.06005844,-1.020077955,-0.5194095519999999,0.281982624,0.159912224,10.4589576,18.435011399999997,-74.2564017,208.49712438904862,29.734865188598633,-91.20604705810547,nan,0.0
7.408001899719238,-0.7831046303999999,-0.16623517359999998,-0.07089836159999999,0.5950494117999999,0.088073505,0.05603013,-1.07995329,-0.5111698,0.290832728,0.156555288,10.667697299999999,17.995559399999998,-72.76226489999999,209.63793814985391,29.734865188598633,-91.20604705810547,nan,0.0
7.556846857070923,-0.7946524695999999,-0.1641203077,-0.0682463869,0.5804467662999999,0.2160639,0.09191871,-0.97594965,-0.49438512,0.305481176,0.162963984,10.9753137,17.402299199999998,-70.6089501,211.71197014734614,29.734865188598633,-91.20604705810547,nan,0.0
7.660632848739624,-0.8014334681999999,-0.16311322869999997,-0.0660643824,0.5698724368,0.10400364000000001,0.05603013,-0.864072495,-0.491943712,0.326233144,0.159912224,11.238984899999998,16.9848198,-69.1257996,213.55040215137439,29.734865188598633,-91.20604705810547,nan,0.0
7.7556328773498535,-0.8096579466999999,-0.1621732883,-0.06391594719999999,0.5604058942,0.11206026,0.047973510000000004,-1.0400364,-0.489197128,0.328674552,0.16632091999999998,11.491669799999999,16.578326699999998,-67.6975806,213.89578177743272,29.734865188598633,-91.20604705810547,nan,0.0
7.859717845916748,-0.8159354057999999,-0.1609983628,-0.06126397249999999,0.550200827,0.047973510000000004,0.052001820000000004,-0.93200445,-0.472717624,0.343628176,0.162963984,11.744354699999999,16.116902099999997,-66.2913342,216.01417514073773,29.734865188598633,-91.20604705810547,nan,0.0
7.961359024047852,-0.8238577605999999,-0.16005842239999998,-0.05891412149999999,0.5404992993,0.047973510000000004,0.09997533,-0.93200445,-0.46997104,0.358276624,0.16632091999999998,11.997039599999999,15.666463799999999,-64.8741015,217.31963838230101,29.734865188598633,-91.20604705810547,nan,0.0
8.057860851287842,-0.8298666653,-0.1592863285,-0.056866394199999996,0.5298914004999999,0.10400364000000001,0.140075325,-0.88805925,-0.45898470399999997,0.363769792,0.172729616,12.2497245,15.270957,-63.456868799999995,218.39869648323864,29.734865188598633,-91.20604705810547,nan,0.0
8.159700870513916,-0.8377554507999999,-0.15844709599999998,-0.0549529441,0.5196527639999999,0.10803195,0.071960265,-0.9279761400000001,-0.445251784,0.372619896,0.172729616,12.447477899999999,14.8754502,-61.98470459999999,219.9251058246129,29.73485565185547,-91.20604705810547,180.0,1.0148263456750428
8.311076879501343,-0.8477255329,-0.1563322301,-0.051159613199999995,0.5042444553,-0.043945200000000004,0.080016885,-0.97192134,-0.433960272,0.381164824,0.17944348799999998,12.722135399999999,14.1503544,-59.9082939,221.29414312050156,29.73485565185547,-91.20604705810547,180.0,1.0148263456750428
8.411602973937988,-0.8541708385,-0.1546201958,-0.048809762199999995,0.49407295739999996,0.019958445000000002,0.09594702000000001,-0.99206289,-0.426025696,0.393066688,0.176086552,12.8319984,13.6559709,-58.54599269999999,222.69574972919085,29.73485565185547,-91.20604705810547,180.0,1.0148263456750428
8.513834953308105,-0.8605825747999999,-0.1532102852,-0.0468963121,0.48346505859999994,0.175963905,0.09191871,-0.995908095,-0.41503935999999997,0.404968552,0.17944348799999998,12.963833999999999,13.2275052,-57.1397463,224.29636558603161,29.73485565185547,-91.20604705810547,180.0,1.0148263456750428
8.617056846618652,-0.8663229251,-0.1519346518,-0.045318554999999996,0.47215220449999995,0.32006754,0.11608857,-1.007993025,-0.40100126399999997,0.413818656,0.17944348799999998,13.095669599999999,12.788053199999998,-55.71152729999999,225.90120759717368,29.73485565185547,-91.20604705810547,180.0,1.0148263456750428
8.702538013458252,-0.8731710623,-0.1507932956,-0.043337966299999996,0.4614771671,0.019958445000000002,0.075988575,-0.97594965,-0.39825467999999997,0.419311824,0.182495248,13.216518899999999,12.4035327,-54.272321999999996,226.4753769874718,29.73485565185547,-91.20604705810547,180.0,1.0148263456750428
8.819687843322754,-0.8782735959,-0.1494169543,-0.040786699499999995,0.45060071389999995,0.14794884,-0.00402831,-0.97192134,-0.379028592,0.42816192799999997,0.185852184,13.337368199999998,11.9091492,-52.8990345,228.48327146899766,29.73485565185547,-91.20604705810547,180.0,1.0148263456750428
8.916122913360596,-0.8849203173,-0.148040613,-0.0385039871,0.4399256765,0.16809039,0.10803195,-1.08800991,-0.37078884,0.433960272,0.18920912,13.458217499999998,11.4367383,-51.5147607,229.48841683624423,29.73485565185547,-91.20604705810547,180.0,1.0148263456750428
9.01979684829712,-0.8896200192999999,-0.1465971331,-0.0363555519,0.42884780749999996,0.06408675,0.09594702000000001,-0.916074315,-0.359497328,0.4425052,0.19226088,13.5570942,10.9863,-50.14147319999999,230.90911643596303,29.73485565185547,-91.20604705810547,180.0,1.0148263456750428
9.161626815795898,-0.898985854,-0.1441465742,-0.033233607,0.4122645733,0.184020525,0.140075325,-0.97594965,-0.34576440799999997,0.451050128,0.198974752,13.623012,10.2831768,-48.0430899,232.52707592689563,29.73485565185547,-91.20604705810547,180.0,1.0148263456750428
9.270206928253174,-0.9042898034,-0.1425688171,-0.031118741099999996,0.4011867043,0.20800728000000002,0.11206026,-1.111996665,-0.33172631199999997,0.454101888,0.195617816,13.666957199999999,9.8327385,-46.669802399999995,233.85146990455235,29.734844207763672,-91.20603942871094,nan,0.0
9.370837926864624,-0.9093587676999999,-0.14092392139999999,-0.028601043599999997,0.3903438204,0.123962085,0.071960265,-0.912046005,-0.317993392,0.460205408,0.195617816,13.7218887,9.3273687,-45.340460099999994,235.35624698866471,29.734844207763672,-91.20603942871094,nan,0.0
9.471661806106567,-0.9142263161999999,-0.13907760989999998,-0.025546237299999996,0.37973592159999997,0.019958445000000002,0.088073505,-0.947934585,-0.30975364,0.465698576,0.205383448,13.7548476,8.7670674,-44.055063,236.37062713300472,29.734844207763672,-91.20603942871094,nan,0.0
9.577181816101074,-0.9183553401,-0.13733200629999998,-0.023297094199999997,0.36818808239999995,0.227965725,0.119933775,-0.968076135,-0.290222376,0.47149692,0.208740384,13.7768202,8.250711299999999,-42.68177549999999,238.38629086616697,29.734844207763672,-91.20603942871094,nan,0.0
9.672714948654175,-0.9238271359999999,-0.1356871106,-0.020812966,0.35734519849999996,0.11608857,0.036071685,-1.02392316,-0.27923604,0.476990088,0.21514908,13.7768202,7.789286699999999,-41.3524332,239.65475342462378,29.734844207763672,-91.20603942871094,nan,0.0
9.778244972229004,-0.9276540362,-0.1337736605,-0.0192352089,0.3458309286,0.15600546,0.09191871,-0.995908095,-0.267944528,0.480347024,0.208740384,13.7218887,7.360821,-39.990131999999996,240.84658887748634,29.734844207763672,-91.20603942871094,nan,0.0
9.878376960754395,-0.9328572776999999,-0.1321287648,-0.017254620199999997,0.33465235169999996,0.10400364000000001,0.11206026,-1.116024975,-0.256958192,0.483093608,0.208740384,13.688929799999999,6.921368999999999,-38.6388171,241.9914235557813,29.734844207763672,-91.20603942871094,nan,0.0
9.97999882698059,-0.936247777,-0.1300810375,-0.0150054771,0.3235073441,-0.015930135,0.13201870500000001,-1.016049645,-0.24566668,0.488586776,0.218506016,13.644984599999999,6.470930699999999,-37.3094748,243.3062587434415,29.734844207763672,-91.20603942871094,nan,0.0
10.076356887817383,-0.9411488948,-0.12806687949999998,-0.012387071699999998,0.3124966137,0.080016885,0.088073505,-1.09203822,-0.229187176,0.48889195199999996,0.21514908,13.568080499999999,5.932601999999999,-36.035064,244.88333249924483,29.734844207763672,-91.20603942871094,nan,0.0
10.22847580909729,-0.9470235223,-0.1257170285,-0.010037220699999998,0.2953091321,0.140075325,0.13201870500000001,-1.012021335,-0.209655912,0.49438512,0.224914712,13.4801901,5.3503281,-34.0025985,247.01945818780678,29.734825134277344,-91.20603942871094,167.75211918054652,1.7606033973846582
10.329677820205688,-0.9508168531999999,-0.1240049942,-0.0081573399,0.2836941543,0.15600546,0.123962085,-0.968076135,-0.204162744,0.49743687999999997,0.221862952,13.414272299999999,4.921862399999999,-32.6402973,247.68530942431744,29.734825134277344,-91.20603942871094,167.75211918054652,1.7606033973846582
10.419651985168457,-0.9544087682999999,-0.1223936678,-0.0062103205,0.27217988439999996,0.16406208,0.080016885,-0.968076135,-0.190124648,0.496826528,0.231628584,13.3483545,4.504383,-31.310954999999996,249.05924438983527,29.734825134277344,-91.20603942871094,167.75211918054652,1.7606033973846582
10.536877870559692,-0.9569936043999999,-0.12051378699999998,-0.0040618853,0.26059847589999996,0.10400364000000001,0.09191871,-0.968076135,-0.170593384,0.500183464,0.224914712,13.271450399999999,4.0429584,-29.970626399999997,251.16746084211294,29.734825134277344,-91.20603942871094,167.75211918054652,1.7606033973846582
10.632153987884521,-0.961089059,-0.11886889129999999,-0.0017456035999999999,0.24931919109999998,0.00402831,0.10400364000000001,-1.02795147,-0.162353632,0.502930048,0.231628584,13.183559999999998,3.5925200999999998,-28.674242999999997,252.10911454187345,29.734825134277344,-91.20603942871094,167.75211918054652,1.7606033973846582
10.736032009124756,-0.9636738950999999,-0.11708971839999999,0.00010070789999999999,0.2379056291,0.188048835,0.10803195,-1.168026795,-0.145568952,0.511780152,0.231628584,13.084683299999998,3.1640544,-27.355887,254.12231356828198,29.734825134277344,-91.20603942871094,167.75211918054652,1.7606033973846582
10.821484804153442,-0.9671986716,-0.11537768409999999,0.002014158,0.2262235127,0.25598079,0.080016885,-0.88805925,-0.13732919999999998,0.511780152,0.231628584,12.963833999999999,2.7685475999999998,-26.0155584,254.97930733337856,29.734825134277344,-91.20603942871094,167.75211918054652,1.7606033973846582
10.98700499534607,-0.9714284033999999,-0.1122557392,0.0056396423999999995,0.20910316969999998,-0.036071685,0.09191871,-1.055966535,-0.11779793599999999,0.511474976,0.23803728,12.744107999999999,2.0654244,-24.059997,257.03035303981267,29.734825134277344,-91.20603942871094,167.75211918054652,1.7606033973846582
11.090108871459961,-0.9740803780999999,-0.1101408733,0.008056632,0.19738748399999997,0.084045195,0.080016885,-0.99206289,-0.101013256,0.511474976,0.23468034399999999,12.5793135,1.5930134999999999,-22.7306547,258.82819277438813,29.734825134277344,-91.20603942871094,167.75211918054652,1.7606033973846582
11.186769962310791,-0.9764973677,-0.10805957669999999,0.010977161099999999,0.18617533779999998,-0.067931955,0.123962085,-1.047909915,-0.092468328,0.502319696,0.24444597599999998,12.4255053,1.0766574,-21.4672302,259.56961253076906,29.734817504882812,-91.20604705810547,nan,0.0
11.287940979003906,-0.9788472186999999,-0.1061125573,0.013427719999999999,0.1744260828,0.2160639,0.06005844,-0.88403094,-0.067443896,0.502930048,0.231628584,12.260710799999998,0.6152327999999999,-20.1378879,262.3620922007654,29.734817504882812,-91.20604705810547,nan,0.0
11.390430927276611,-0.9810627925,-0.1041655379,0.015341170099999999,0.1625089813,0.23199403500000002,0.09191871,-1.04406471,-0.06469731199999999,0.5081180399999999,0.247802912,12.08493,0.20873969999999997,-18.786572999999997,262.74372692202905,29.734817504882812,-91.20604705810547,nan,0.0
11.495832920074463,-0.9823048565999999,-0.10231922639999999,0.017254620199999997,0.15028975609999998,0.088073505,0.047973510000000004,-0.964047825,-0.045166048,0.5081180399999999,0.24444597599999998,11.9091492,-0.1867671,-17.402299199999998,264.92039213998544,29.734817504882812,-91.20604705810547,nan,0.0
11.591261863708496,-0.9849904005999999,-0.10020436049999999,0.020275857199999997,0.1390104713,0.0,0.15197715,-0.93603276,-0.03662112,0.49652135199999997,0.24444597599999998,11.7113958,-0.6921368999999999,-16.1388747,265.78176592195183,29.734817504882812,-91.20604705810547,nan,0.0
11.69527792930603,-0.9857960638,-0.0977538016,0.023397802099999997,0.12793260229999998,0.071960265,0.13201870500000001,-0.97594965,-0.0228882,0.50201452,0.251159848,11.491669799999999,-1.2194793,-14.886436499999999,267.38953820020942,29.734817504882812,-91.20604705810547,nan,0.0
11.842903852462769,-0.9889180086999999,-0.09473256459999999,0.0274596874,0.11084582859999999,0.11608857,0.16406208,-1.007993025,-0.011596687999999999,0.49896276,0.251159848,11.1620808,-1.9116161999999999,-12.9748203,268.66859466611828,29.734817504882812,-91.20604705810547,nan,0.0
11.945302963256836,-0.9903279193,-0.09291982239999999,0.029406706799999998,0.0988951578,0.09191871,0.09594702000000001,-1.020077955,0.010986336,0.493164416,0.251159848,10.9533411,-2.2851504,-11.623505399999999,271.27618004366741,29.734817504882812,-91.20604705810547,nan,0.0
12.04980993270874,-0.9915364140999999,-0.09114064949999999,0.0314880034,0.08677664049999999,0.244078965,0.11608857,-1.064023155,0.019226088,0.48431431199999997,0.251159848,10.744601399999999,-2.6696709,-10.250217899999999,272.27330798080209,29.734817504882812,-91.20604705810547,nan,0.0
12.135733842849731,-0.9925434930999999,-0.08946218449999999,0.0338378544,0.0753966478,0.09997533,0.10803195,-1.068051465,0.0305176,0.481262552,0.251159848,10.546847999999999,-3.076164,-8.975807099999999,273.62835563532764,29.734817504882812,-91.20604705810547,nan,0.0
12.247214794158936,-0.9934834334999999,-0.08764944229999999,0.0359862896,0.063445977,0.127990395,0.09594702000000001,-0.78405561,0.044555696,0.481262552,0.251159848,10.316135699999998,-3.4606844999999997,-7.6244922,275.28941410659718,29.73481559753418,-91.20604705810547,nan,0.0
12.347945928573608,-0.9942219580999999,-0.0857695615,0.0383361406,0.05186456849999999,0.09997533,0.127990395,-0.9279761400000001,0.058593792,0.478515968,0.251159848,10.074437099999999,-3.8561913,-6.3171225,276.98105740682979,29.73481559753418,-91.20604705810547,nan,0.0
12.454424858093262,-0.9941548195,-0.0839568193,0.0398803284,0.0396789126,0.2160639,0.039916890000000003,-1.055966535,0.075378472,0.475159032,0.26092548,9.821752199999999,-4.2077529,-4.932848699999999,279.01419457849397,29.73481559753418,-91.20604705810547,nan,0.0
12.550004005432129,-0.9953633142999999,-0.08197623059999999,0.041961624999999995,0.027862519,0.032043375,0.16003377,-1.047909915,0.08087164,0.472412448,0.251159848,9.558081,-4.5263556,-3.5815338,279.71422289208334,29.73481559753418,-91.20604705810547,nan,0.0
12.653960943222046,-0.9950611905999999,-0.07996207259999999,0.043505812799999995,0.0159454175,-0.00402831,0.071960265,-1.111996665,0.089416568,0.460205408,0.264282416,9.2834235,-4.8119993999999995,-2.19726,280.99540499145689,29.73481559753418,-91.20604705810547,nan,0.0
12.802347898483276,-0.9959339923999999,-0.07680655839999999,0.0467284656,-0.0017456035999999999,0.15600546,0.10803195,-1.007993025,0.106201248,0.460510584,0.257568544,8.8329852,-5.3503281,-0.20873969999999997,282.98629738156217,29.73481559753418,-91.20604705810547,nan,0.0
12.904186010360718,-0.9959004230999999,-0.0748259697,0.0490447473,-0.013360581399999998,0.06408675,0.09594702000000001,-1.03600809,0.120239344,0.44860872,0.26092548,8.5363551,-5.7238622999999995,1.1096162999999999,285.00417060493766,29.73481559753418,-91.20604705810547,nan,0.0
13.008996963500977,-0.9956990072999999,-0.07297965819999999,0.05089105879999999,-0.025445529399999996,0.15600546,0.09997533,-1.099911735,0.128479096,0.448913896,0.254211608,8.250711299999999,-6.031478699999999,2.4938900999999998,285.97111444642286,29.73481559753418,-91.20604705810547,nan,0.0
13.095088005065918,-0.9953633142999999,-0.0710662081,0.0528045089,-0.037261922999999995,0.084045195,0.080016885,-0.951962895,0.142822368,0.43640168,0.267334176,7.954081199999999,-6.3390951,3.8452049999999995,288.12186024790134,29.73481559753418,-91.20604705810547,nan,0.0
13.205123901367188,-0.9948597747999999,-0.06908561939999999,0.05498651339999999,-0.049380440299999995,0.119933775,0.032043375,-0.955991205,0.156860464,0.433655096,0.264282416,7.6354785,-6.679670399999999,5.2404651,289.88592374714915,29.734817504882812,-91.20606994628906,253.93842729559816,1.0527832896826463
13.307269811630249,-0.9942890966999999,-0.06616509029999999,0.057437072299999996,-0.060928279499999995,0.067931955,0.11206026,-1.0400364,0.165100216,0.427856752,0.26092548,7.207012799999999,-7.020245699999999,6.569807399999999,291.10047038705761,29.734817504882812,-91.20606994628906,253.93842729559816,1.0527832896826463
13.407837867736816,-0.9935170027999999,-0.0633788384,0.059988339099999996,-0.0727111038,0.136047015,0.09191871,-0.91991952,0.179138312,0.416260064,0.257568544,6.7895334,-7.382793599999999,7.932108599999999,293.28471904119749,29.734817504882812,-91.20606994628906,253.93842729559816,1.0527832896826463
13.508373022079468,-0.9925770623999999,-0.06049187859999999,0.0630431454,-0.0845274974,0.047973510000000004,0.136047015,-1.02392316,0.184936656,0.410156544,0.264282416,6.3390951,-7.778300399999999,9.3053961,294.27027325930948,29.734817504882812,-91.20606994628906,253.93842729559816,1.0527832896826463
13.660707950592041,-0.9909321667,-0.0565307012,0.0661986596,-0.10241993429999999,0.127990395,0.09191871,-1.099911735,0.199279928,0.389404576,0.267334176,5.712876,-8.2067661,11.392793099999999,297.10134546332199,29.734817504882812,-91.20606994628906,253.93842729559816,1.0527832896826463
13.76495885848999,-0.9895893947,-0.0541472809,0.0682463869,-0.11463915949999999,0.047973510000000004,0.119933775,-0.916074315,0.213012848,0.389404576,0.264282416,5.3063829,-8.4814236,12.821012099999999,298.67962705715064,29.734817504882812,-91.20606994628906,253.93842729559816,1.0527832896826463
13.861423969268799,-0.9880787762,-0.0517974299,0.07005912909999999,-0.12679124609999998,0.052001820000000004,0.088073505,-1.116024975,0.227050944,0.380859648,0.26092548,4.910876099999999,-8.723122199999999,14.2492311,300.80144597613685,29.734817504882812,-91.20606994628906,253.93842729559816,1.0527832896826463
13.962397813796997,-0.9864338804999999,-0.0496489947,0.0720732871,-0.13894333269999998,0.119933775,0.136047015,-0.968076135,0.238647632,0.362854264,0.267334176,4.5263556,-8.975807099999999,15.6774501,303.33274123987911,29.734817504882812,-91.20606994628906,253.93842729559816,1.0527832896826463
14.064822912216187,-0.9846547076,-0.0477019753,0.0739195986,-0.150726157,0.11608857,0.023986755000000002,-0.968076135,0.238647632,0.36010768,0.26092548,4.1638077,-9.2065194,17.0727102,303.53290865029641,29.734817504882812,-91.20606994628906,253.93842729559816,1.0527832896826463
14.166337966918945,-0.9826741188999999,-0.045452832199999994,0.0762694496,-0.16267682779999998,0.09594702000000001,0.088073505,-1.012021335,0.252685728,0.35400416,0.267334176,3.7463282999999996,-9.4811769,18.4899429,305.51898422672804,29.734819412231445,-91.2060775756836,nan,0.0
14.266924858093262,-0.9805592529999999,-0.043136550499999995,0.07848502339999999,-0.17449322139999998,0.019958445000000002,0.071960265,-0.916074315,0.269470408,0.339355712,0.264282416,3.3288488999999997,-9.722875499999999,19.8961893,308.45185044269527,29.734819412231445,-91.2060775756836,nan,0.0
14.37174391746521,-0.9783436791999999,-0.0410216846,0.08002921119999999,-0.1864438922,0.16406208,0.088073505,-0.98803458,0.272522168,0.336609128,0.26092548,2.9333421,-9.898656299999999,21.324408299999998,308.99398255593451,29.734819412231445,-91.2060775756836,nan,0.0
14.523409843444824,-0.9746510561999999,-0.0379668783,0.08288260169999999,-0.20436989839999997,0.01208493,0.06005844,-0.88403094,0.281067096,0.31585715999999997,0.264282416,2.3400819,-10.2062727,23.4777231,311.66444876326761,29.734819412231445,-91.2060775756836,nan,0.0
14.619988918304443,-0.9719655121999999,-0.035919150999999996,0.08425894299999999,-0.21645484639999998,0.16406208,0.071960265,-0.960019515,0.295105192,0.301513888,0.257568544,1.9445750999999998,-10.3381083,24.938900999999998,314.38457028341656,29.734819412231445,-91.2060775756836,nan,0.0
14.724495887756348,-0.9691456909999999,-0.033737146499999995,0.0866423633,-0.22833837859999997,0.071960265,0.119933775,-0.955991205,0.30090353599999997,0.295410368,0.257568544,1.5051230999999998,-10.568820599999999,26.3781063,315.52778652020521,29.734819412231445,-91.2060775756836,nan,0.0
14.820823907852173,-0.9662251619,-0.0310851718,0.0886565213,-0.24002049499999997,0.019958445000000002,0.123962085,-1.047909915,0.309448464,0.283508504,0.26092548,1.0217258999999999,-10.7336151,27.806325299999997,317.50490891739145,29.734819412231445,-91.2060775756836,nan,0.0
14.922392845153809,-0.9631367862999999,-0.028701751499999997,0.09083852579999999,-0.2516019035,0.192077145,0.119933775,-0.97192134,0.31494163199999997,0.27465839999999997,0.267334176,0.5603013,-10.920382199999999,29.223557999999997,318.90854429445943,29.734819412231445,-91.2060775756836,nan,0.0
15.023526906967163,-0.9598469948999999,-0.026184054,0.09275197589999999,-0.2634854357,0.119933775,0.075988575,-0.947934585,0.329284904,0.25970477599999997,0.267334176,0.0878904,-11.063204099999998,30.6957222,321.7373944462322,29.734819412231445,-91.2060775756836,nan,0.0
15.127180814743042,-0.9563893569999999,-0.023632787199999998,0.0944304409,-0.2754696758,0.071960265,0.032043375,-1.020077955,0.329284904,0.245361504,0.264282416,-0.3955068,-11.1620808,32.1788727,323.3089381838829,29.734819412231445,-91.2060775756836,nan,0.0
15.223989963531494,-0.9527974418999999,-0.020980812499999998,0.09647816819999999,-0.28708465359999996,0.10803195,0.14392053,-1.13598342,0.343323,0.239257984,0.264282416,-0.9008765999999999,-11.293916399999999,33.629064299999996,325.12778798403008,29.734811782836914,-91.20608520507812,nan,0.0
15.378284931182861,-0.9471913687999999,-0.0170867737,0.0995329745,-0.30437284309999996,0.084045195,0.084045195,-1.003964715,0.34942652,0.218811192,0.26092548,-1.6479449999999998,-11.4806835,35.7933654,327.94516575871529,29.734811782836914,-91.20608520507812,nan,0.0
15.482370853424072,-0.9432637607,-0.014703353399999999,0.10127857809999999,-0.315887113,0.09997533,0.127990395,-1.02795147,0.34942652,0.206909328,0.264282416,-2.1203559,-11.5575876,37.243556999999996,329.36853901761697,29.734811782836914,-91.20608520507812,nan,0.0
15.579693794250488,-0.9391347367999999,-0.012252794499999999,0.1026884887,-0.3276027987,0.16809039,0.084045195,-1.1400117300000001,0.35797144799999997,0.19256605599999999,0.257568544,-2.5927667999999997,-11.590546499999999,38.726707499999996,331.72255178056236,29.734811782836914,-91.20608520507812,nan,0.0
15.68454384803772,-0.9349385742999999,-0.010104359299999999,0.10436695369999999,-0.33894922209999995,0.192077145,0.09191871,-0.97997796,0.363769792,0.180664192,0.26092548,-3.0322188,-11.6564643,40.165912799999994,333.58896936459433,29.734811782836914,-91.20608520507812,nan,0.0
15.779729843139648,-0.9307759810999999,-0.0076202310999999995,0.1055418792,-0.34995995249999995,0.09594702000000001,0.039916890000000003,-1.003964715,0.369568136,0.169067504,0.251159848,-3.4936434,-11.645477999999999,41.572159199999994,335.41717684437305,29.734811782836914,-91.20608520507812,nan,0.0
15.881166934967041,-0.9265462493,-0.0051361029,0.10701892839999999,-0.36056785129999996,0.140075325,0.071960265,-0.916074315,0.37231472,0.162963984,0.26092548,-3.955068,-11.6564643,42.9344604,336.36076832163519,29.734811782836914,-91.20608520507812,nan,0.0
15.983557939529419,-0.9222829481999999,-0.0027191132999999997,0.1086973934,-0.3708736264,0.16809039,0.09191871,-0.856015875,0.378113064,0.148315536,0.254211608,-4.4274789,-11.689423199999998,44.2638027,338.58231540523491,29.734811782836914,-91.20608520507812,nan,0.0
16.086328983306885,-0.9179525084999999,-0.0006378167,0.11004016539999999,-0.38111226289999994,0.13201870500000001,0.09997533,-0.964047825,0.383911408,0.13641367199999999,0.257568544,-4.8449583,-11.6784369,45.593145,340.43855581576383,29.734811782836914,-91.20608520507812,nan,0.0
16.183076858520508,-0.9135884994999999,0.0011749255,0.1108122593,-0.3912837608,0.188048835,0.06005844,-0.93603276,0.383911408,0.12481698399999999,0.254211608,-5.207506199999999,-11.623505399999999,46.900514699999995,341.98965950816995,29.73480224609375,-91.20609283447266,232.48450283619479,0.93584178969532605
16.335766792297363,-0.9070089167,0.0033569299999999997,0.11285998659999999,-0.40568499049999995,0.023986755000000002,0.11608857,-1.059994845,0.392761512,0.107116776,0.257568544,-5.7238622999999995,-11.6564643,48.779171999999996,344.7448812969422,29.73480224609375,-91.20609283447266,232.48450283619479,0.93584178969532605
16.439807891845703,-0.9026784769999999,0.0045989941,0.11457202089999999,-0.4147487015,0.071960265,0.11608857,-0.87597432,0.39825467999999997,0.101318432,0.251159848,-6.0534513,-11.7113958,49.976678699999994,345.72640145455898,29.73480224609375,-91.20609283447266,232.48450283619479,0.93584178969532605
16.536244869232178,-0.8983816065999999,0.0059081967999999995,0.11571337709999999,-0.4236781353,0.19592235,0.043945200000000004,-1.020077955,0.40100126399999997,0.095825264,0.24444597599999998,-6.372053999999999,-11.7113958,51.152212799999994,346.56035170455709,29.73480224609375,-91.20609283447266,232.48450283619479,0.93584178969532605
16.637991905212402,-0.8941518747999999,0.0070831222999999995,0.11675402539999999,-0.4322047375,0.184020525,0.043945200000000004,-0.864072495,0.393066688,0.0839234,0.247802912,-6.657697799999999,-11.689423199999998,52.2838017,347.94778101312966,29.73480224609375,-91.20609283447266,232.48450283619479,0.93584178969532605
16.73978590965271,-0.8899221429999999,0.0079559241,0.11732470349999999,-0.4406642011,0.171935595,0.071960265,-1.0400364,0.40130644,0.072326712,0.24444597599999998,-6.8884101,-11.645477999999999,53.393418,349.7833657199738,29.73480224609375,-91.20609283447266,232.48450283619479,0.93584178969532605
16.842248916625977,-0.8859273963,0.008929433799999999,0.11846605969999999,-0.44831800149999995,0.13201870500000001,0.14392053,-1.016049645,0.401611616,0.066223192,0.247802912,-7.1520813,-11.645477999999999,54.4151439,350.63654875425516,29.73480224609375,-91.20609283447266,232.48450283619479,0.93584178969532605
16.93870496749878,-0.8819997881999999,0.0097686663,0.11893602989999999,-0.45590466329999996,0.19592235,0.043945200000000004,-0.964047825,0.4043582,0.057373087999999996,0.247802912,-7.3718072999999995,-11.590546499999999,55.4148972,351.92439007532084,29.73480224609375,-91.20609283447266,232.48450283619479,0.93584178969532605
17.04053282737732,-0.8781728879999999,0.010440052299999999,0.11974169309999999,-0.4629877856,0.071960265,0.075988575,-0.97594965,0.40466337599999996,0.051574744,0.247802912,-7.580546999999999,-11.5795602,56.359719,352.73675525941542,29.73480224609375,-91.20609283447266,232.48450283619479,0.93584178969532605
17.194974899291992,-0.8728353692999999,0.011212146199999998,0.1204466484,-0.47279002119999997,0.15600546,0.039916890000000003,-1.003964715,0.40466337599999996,0.039978056,0.23803728,-7.8222456,-11.513642399999998,57.67807499999999,354.35786568080817,29.734800338745117,-91.20610809326172,nan,0.0
17.295352935791016,-0.8694784392999999,0.0115478392,0.1202788019,-0.47896677239999996,0.19995066,0.039916890000000003,-0.968076135,0.40191679199999997,0.034484888,0.23468034399999999,-7.932108599999999,-11.425752,58.4910612,355.09597187154526,29.734800338745117,-91.20610809326172,nan,0.0
17.400057792663574,-0.8661886478999999,0.011614977799999999,0.12037950979999999,-0.48484139989999997,0.015930135,0.023986755000000002,-1.003964715,0.407715136,0.028381368,0.23803728,-8.019998999999999,-11.3818068,59.2710885,356.01801967152949,29.734800338745117,-91.20610809326172,nan,0.0
17.495507955551147,-0.8631002723,0.0119842401,0.12017809399999999,-0.49034676509999997,0.10803195,0.06005844,-1.13195511,0.407715136,0.031127952,0.24444597599999998,-8.1188757,-11.2829301,60.007170599999995,355.63409130971849,29.734800338745117,-91.20610809326172,nan,0.0
17.59717583656311,-0.8602133124999999,0.012353502399999999,0.11984240099999999,-0.49548286799999997,0.171935595,0.11608857,-0.97594965,0.41046172,0.022583024,0.23468034399999999,-8.2067661,-11.1840534,60.6883212,356.85084213604574,29.734800338745117,-91.20610809326172,nan,0.0
17.699944019317627,-0.8574941991999999,0.012487779599999999,0.11957384659999999,-0.5002497086,0.171935595,0.043945200000000004,-0.964047825,0.41046172,0.01373292,0.23803728,-8.2616976,-11.1071493,61.325526599999996,358.08375562750365,29.734800338745117,-91.20610809326172,nan,0.0
17.80171799659729,-0.8549093630999999,0.012588487499999999,0.1192381536,-0.5047144255,0.14794884,0.019958445000000002,-1.04406471,0.41046172,0.013427744,0.241394216,-8.3166291,-11.019258899999999,61.91878679999999,358.12630813800274,29.734800338745117,-91.20610809326172,nan,0.0
17.89876079559326,-0.8524252348999999,0.012722764699999998,0.118835322,-0.5089777266,0.05603013,0.043945200000000004,-1.016049645,0.41351348,0.01068116,0.241394216,-8.349587999999999,-10.9313685,62.4790881,358.52036422910317,29.734800338745117,-91.20610809326172,nan,0.0
18.053080797195435,-0.8489004584,0.013159165599999998,0.11802965879999999,-0.5150202006,0.219909105,0.043945200000000004,-0.947934585,0.410766896,0.004272464,0.247802912,-8.426492099999999,-10.766573999999999,63.281088,359.40407727444608,29.734800338745117,-91.20610809326172,nan,0.0
18.15370798110962,-0.8467184538999999,0.013427719999999999,0.11755968859999999,-0.5187128235999999,0.227965725,0.067931955,-0.951962895,0.408020312,-0.001220704,0.23803728,-8.470437299999999,-10.667697299999999,63.775471499999995,0.17141543326300734,29.734800338745117,-91.20611572265625,264.5181403929256,1.1554843423503214
18.25520896911621,-0.8446707266,0.013360581399999998,0.11719042629999998,-0.5221368921999999,0.15197715,0.023986755000000002,-0.968076135,0.405273728,-0.001220704,0.241394216,-8.4814236,-10.6017795,64.2368961,0.17257712723881014,29.734800338745117,-91.20611572265625,264.5181403929256,1.1554843423503214
18.358760833740234,-0.8427572765,0.0130584577,0.11692187189999999,-0.5252924064,0.10803195,0.032043375,-1.04406471,0.408020312,-0.003662112,0.231628584,-8.470437299999999,-10.568820599999999,64.6543755,0.51423402610186031,29.734800338745117,-91.20611572265625,264.5181403929256,1.1554843423503214
18.454349994659424,-0.8408773957,0.0129577498,0.11675402539999999,-0.5283136434,0.15197715,0.075988575,-0.93200445,0.408020312,-0.007019048,0.23468034399999999,-8.4924099,-10.524875399999999,65.06086859999999,0.98554447138945989,29.734800338745117,-91.20611572265625,264.5181403929256,1.1554843423503214
18.556054830551147,-0.8390310841999999,0.012823472599999998,0.116485471,-0.5313013111,0.16406208,0.039916890000000003,-0.964047825,0.408325488,-0.015869152,0.23803728,-8.5033962,-10.4809302,65.4673617,2.2256217229027015,29.734800338745117,-91.20611572265625,264.5181403929256,1.1554843423503214
18.658674001693726,-0.8374533271,0.0128570419,0.11588122359999999,-0.5339197164999999,0.2600091,0.052001820000000004,-0.97997796,0.41351348,-0.007019048,0.23468034399999999,-8.4924099,-10.393039799999999,65.8189233,0.97245489875376734,29.734800338745117,-91.20611572265625,264.5181403929256,1.1554843423503214
18.761456966400146,-0.8359762779,0.0130584577,0.1153441148,-0.5363367061,0.14794884,0.06408675,-0.97997796,0.408325488,-0.015563976,0.23468034399999999,-8.5033962,-10.3051494,66.137526,2.1828631140616039,29.734800338745117,-91.20611572265625,264.5181403929256,1.1554843423503214
18.910417795181274,-0.8337942733999999,0.0129577498,0.11447131299999999,-0.5399286212,0.184020525,0.032043375,-0.97192134,0.413818656,-0.021972672,0.24444597599999998,-8.4814236,-10.1843001,66.6099369,3.0393995689269104,29.734800338745117,-91.20611572265625,264.5181403929256,1.1554843423503214
19.012236833572388,-0.8324515013999999,0.012924180499999998,0.11390063489999999,-0.5421106256999999,0.188048835,0.039916890000000003,-0.995908095,0.408325488,-0.016174327999999998,0.24444597599999998,-8.470437299999999,-10.118382299999999,66.8955807,2.2683778516022812,29.734800338745117,-91.20611572265625,264.5181403929256,1.1554843423503214
19.113593816757202,-0.8312430066,0.0131927349,0.11312854099999999,-0.5440912144,0.136047015,0.052001820000000004,-0.960019515,0.408325488,-0.018920911999999998,0.23803728,-8.470437299999999,-10.0085193,67.1592519,2.6530635884094522,29.734800338745117,-91.20611572265625,264.5181403929256,1.1554843423503214
19.212718963623047,-0.8303030661999999,0.013360581399999998,0.11232287779999998,-0.5457025407999999,0.171935595,0.043945200000000004,-0.968076135,0.408325488,-0.018920911999999998,0.24444597599999998,-8.448464699999999,-9.898656299999999,67.3679916,2.6530635884094522,29.73481559753418,-91.20611572265625,nan,0.0
19.314399003982544,-0.8293631257999999,0.0132934428,0.11195361549999999,-0.5472467286,0.067931955,0.05603013,-0.97997796,0.413818656,-0.018920911999999998,0.24444597599999998,-8.4374784,-9.8547111,67.56574499999999,2.617895253451934,29.73481559753418,-91.20611572265625,nan,0.0
19.414554834365845,-0.8284567546999999,0.013092027,0.111450076,-0.5486902084999999,0.071960265,0.039916890000000003,-1.02392316,0.408325488,-0.018920911999999998,0.24444597599999998,-8.4045195,-9.8107659,67.75251209999999,2.6530635884094522,29.73481559753418,-91.20611572265625,nan,0.0
19.51949691772461,-0.8277517993999999,0.0130584577,0.1108122593,-0.5498651339999999,0.071960265,0.00805662,-1.003964715,0.405273728,-0.015869152,0.23803728,-8.371560599999999,-9.7338618,67.90632029999999,2.2423638785825233,29.73481559753418,-91.20611572265625,nan,0.0
19.653527975082397,-0.8268789975999999,0.013461289299999998,0.11000659609999999,-0.5513086139,0.14392053,0.023986755000000002,-0.960019515,0.405578904,-0.021972672,0.241394216,-8.371560599999999,-9.623998799999999,68.0930874,3.1010287723705119,29.73481559753418,-91.20611572265625,nan,0.0
19.71682596206665,-0.8266440125,0.013561997199999998,0.10963733379999999,-0.5517450147999999,0.136047015,0.084045195,-1.047909915,0.40283231999999997,-0.024719256,0.23803728,-8.3605743,-9.569067299999999,68.1480189,3.5114743155223209,29.73481559753418,-91.20611572265625,nan,0.0
19.865933895111084,-0.8259390571999999,0.0141326753,0.10896594779999999,-0.5529535096,0.15600546,0.032043375,-1.072079775,0.408325488,-0.024414079999999998,0.23468034399999999,-8.3825469,-9.4592043,68.3018271,3.4216830746703977,29.73481559753418,-91.20611572265625,nan,0.0
19.970489978790283,-0.8255697948999999,0.014602645499999999,0.10863025479999999,-0.553557757,0.088073505,0.032043375,-1.103940045,0.405578904,-0.027771016,0.241394216,-8.4155058,-9.393286499999999,68.37873119999999,3.9170732284077872,29.73481559753418,-91.20611572265625,nan,0.0
20.071663856506348,-0.8252005325999999,0.014770492,0.1083617004,-0.5541620044,0.171935595,0.015930135,-1.0400364,0.40283231999999997,-0.024719256,0.241394216,-8.426492099999999,-9.349341299999999,68.4556353,3.5114743155223209,29.73481559753418,-91.20611572265625,nan,0.0
20.173173904418945,-0.8249319782,0.014871199899999998,0.10832813109999999,-0.5545312667,0.071960265,0.019958445000000002,-0.9080176950000001,0.405578904,-0.021972672,0.24444597599999998,-8.426492099999999,-9.338355,68.51056679999999,3.1010287723705119,29.73481559753418,-91.20611572265625,nan,0.0
20.27008080482483,-0.8247641317,0.014871199899999998,0.10805957669999999,-0.5548669597,0.20800728000000002,0.023986755000000002,-0.947934585,0.40283231999999997,-0.027771016,0.241394216,-8.4155058,-9.3053961,68.54352569999999,3.9436965566466142,29.734832763671875,-91.20611572265625,0.0,1.7857899859283637
20.374547004699707,-0.8246298544999999,0.015039046399999999,0.1073881907,-0.5551690833999999,0.10803195,0.019958445000000002,-1.103940045,0.405578904,-0.02746584,0.231628584,-8.3935332,-9.228492,68.5764846,3.8741602739257246,29.734832763671875,-91.20611572265625,0.0,1.7857899859283637
20.478875875473022,-0.8245291466,0.015139754299999999,0.10725391349999999,-0.5553704991999999,0.09997533,0.052001820000000004,-0.968076135,0.405578904,-0.021667495999999998,0.23803728,-8.3935332,-9.2065194,68.5984572,3.0580412500161174,29.734832763671875,-91.20611572265625,0.0,1.7857899859283637
20.6235408782959,-0.8245291466,0.015441878,0.10671680469999999,-0.5554712071,0.16406208,0.05603013,-0.94006107,0.405578904,-0.024719256,0.23803728,-8.3825469,-9.1406016,68.6094435,3.4877534793544669,29.734832763671875,-91.20611572265625,0.0,1.7857899859283637
20.7266628742218,-0.8235892062,0.0152068929,0.1061125573,-0.5550012368999999,0.140075325,-0.00805662,-0.916074315,0.40008573599999997,-0.027771016,0.24444597599999998,-8.349587999999999,-9.1076427,68.6204298,3.9706836816546343,29.734832763671875,-91.20611572265625,0.0,1.7857899859283637
20.827139854431152,-0.8245291466,0.015475447299999999,0.1058440029,-0.5556054843,0.084045195,0.01208493,-1.016049645,0.40283231999999997,-0.02746584,0.23468034399999999,-8.3386017,-9.0527112,68.6094435,3.9004937423819115,29.734832763671875,-91.20611572265625,0.0,1.7857899859283637
20.929033994674683,-0.8246969930999999,0.0158447096,0.10517261689999999,-0.5555047764,0.288024165,0.075988575,-1.007993025,0.40283231999999997,-0.027771016,0.241394216,-8.3276154,-8.9648208,68.5764846,3.9436965566466142,29.734832763671875,-91.20611572265625,0.0,1.7857899859283637
21.030520915985107,-0.8247641317,0.015777570999999997,0.10490406249999999,-0.5554712071,0.075988575,0.023986755000000002,-1.003964715,0.40283231999999997,-0.030822776,0.24444597599999998,-8.294656499999999,-8.942848199999998,68.5654983,4.3754697119502453,29.734832763671875,-91.20611572265625,0.0,1.7857899859283637
21.13111686706543,-0.8247641317,0.015307600799999998,0.1045683695,-0.5555047764,0.047973510000000004,-0.00402831,-1.007993025,0.40283231999999997,-0.027771016,0.241394216,-8.2287387,-8.942848199999998,68.5654983,3.9436965566466142,29.734853744506836,-91.20610809326172,17.52384239983769,2.8339986092322547
21.235257863998413,-0.8248312702999999,0.015072615699999998,0.10466907739999999,-0.5554040684999999,0.080016885,0.047973510000000004,-1.116024975,0.405578904,-0.03356936,0.241394216,-8.2177524,-8.975807099999999,68.55451199999999,4.731529225809993,29.734853744506836,-91.20610809326172,17.52384239983769,2.8339986092322547
21.33091688156128,-0.8249655475,0.0149047692,0.10476978529999999,-0.5551690833999999,0.047973510000000004,0.00402831,-0.93200445,0.40008573599999997,-0.036315943999999996,0.23803728,-8.2067661,-8.9867934,68.52155309999999,5.1865477826795541,29.734853744506836,-91.20610809326172,17.52384239983769,2.8339986092322547
21.432796001434326,-0.825133394,0.0149047692,0.1046355081,-0.5549676675999999,0.179992215,0.036071685,-1.047909915,0.394592568,-0.033874536,0.24444597599999998,-8.195779799999999,-8.975807099999999,68.4885942,4.906633356549321,29.734853744506836,-91.20610809326172,17.52384239983769,2.8339986092322547
21.583627939224243,-0.8255697948999999,0.015139754299999999,0.1044676616,-0.5543298509,0.15600546,0.028015065,-1.02392316,0.40283231999999997,-0.021972672,0.241394216,-8.195779799999999,-8.9538345,68.40070379999999,3.122130462115706,29.734853744506836,-91.20610809326172,17.52384239983769,2.8339986092322547
21.685617923736572,-0.8252341018999999,0.015374739399999999,0.10386341419999999,-0.5534234798,0.14392053,0.00805662,-1.064023155,0.397339152,-0.030822776,0.241394216,-8.195779799999999,-8.9098893,68.334786,4.4357203010790158,29.734853744506836,-91.20610809326172,17.52384239983769,2.8339986092322547
21.786122798919678,-0.8263083194999999,0.015307600799999998,0.1037627063,-0.5533227718999999,0.05603013,0.023986755000000002,-1.007993025,0.40008573599999997,-0.0305176,0.23803728,-8.151834599999999,-8.8879167,68.2468956,4.3619408745576607,29.734853744506836,-91.20610809326172,17.52384239983769,2.8339986092322547
21.887167930603027,-0.826811859,0.015139754299999999,0.10305775099999999,-0.5527185244999999,0.15197715,0.0,-0.960019515,0.40008573599999997,-0.027771016,0.23803728,-8.0859168,-8.843971499999999,68.1480189,3.9706836816546343,29.734853744506836,-91.20610809326172,17.52384239983769,2.8339986092322547
21.988165855407715,-0.8273825371,0.015139754299999999,0.10299061239999999,-0.5519128613,0.14794884,0.032043375,-1.03600809,0.397339152,-0.0305176,0.23803728,-8.0639442,-8.843971499999999,68.03815589999999,4.3919749686159548,29.734853744506836,-91.20610809326172,17.52384239983769,2.8339986092322547
22.090070962905884,-0.8279532152,0.0149047692,0.10272205799999999,-0.5510736288,0.3039543,0.039916890000000003,-0.93603276,0.40008573599999997,-0.025024432,0.24444597599999998,-8.019998999999999,-8.843971499999999,67.91730659999999,3.5790552307039434,29.734853744506836,-91.20610809326172,17.52384239983769,2.8339986092322547
22.232890844345093,-0.8280203537999999,0.013763412999999999,0.10215137989999999,-0.5494958716999999,0.084045195,-0.023986755000000002,-1.016049645,0.405578904,-0.024414079999999998,0.23468034399999999,-7.8881634,-8.876930399999999,67.74152579999999,3.4447991302453147,29.734874725341797,-91.20610809326172,0.0,2.4331805112247729
22.33971381187439,-0.8293295565,0.013159165599999998,0.1019499641,-0.5492273173,0.179992215,0.028015065,-0.903989385,0.40008573599999997,-0.027771016,0.24444597599999998,-7.789286699999999,-8.898902999999999,67.6316628,3.9706836816546343,29.734874725341797,-91.20610809326172,0.0,2.4331805112247729
22.444236993789673,-0.8291617099999999,0.0126556261,0.10137928599999999,-0.5478174067,0.15600546,0.019958445000000002,-0.97997796,0.40283231999999997,-0.018920911999999998,0.24444597599999998,-7.7013963,-8.898902999999999,67.5108135,2.6891889765235533,29.734874725341797,-91.20610809326172,0.0,2.4331805112247729
22.540097951889038,-0.8307058977999999,0.0125549182,0.1009764544,-0.5473474365,0.25598079,0.00805662,-0.964047825,0.405578904,-0.021972672,0.241394216,-7.6464647999999995,-8.8549578,67.3570053,3.1010287723705119,29.734874725341797,-91.20610809326172,0.0,2.4331805112247729
22.644941806793213,-0.8305716205999999,0.012252794499999999,0.10040577629999999,-0.5457025407999999,0.123962085,0.036071685,-0.93200445,0.40283231999999997,-0.018920911999999998,0.241394216,-7.569560699999999,-8.843971499999999,67.2031971,2.6891889765235533,29.734874725341797,-91.20610809326172,0.0,2.4331805112247729
22.74544095993042,-0.8321493777,0.011648547099999998,0.10070789999999999,-0.5452325706,0.05603013,0.00805662,-0.98803458,0.394287392,-0.013122568,0.24444597599999998,-7.514629199999999,-8.9098893,67.0493889,1.9061992706397177,29.734874725341797,-91.20610809326172,0.0,2.4331805112247729
22.84637689590454,-0.8329214716,0.011312854099999999,0.1005736228,-0.5440576451,0.13201870500000001,-0.032043375,-0.97594965,0.39978056,-0.016174327999999998,0.24444597599999998,-7.4596976999999995,-8.9318619,66.8845944,2.3168099826681896,29.734874725341797,-91.20610809326172,0.0,2.4331805112247729
22.947301864624023,-0.8337942733999999,0.011077868999999999,0.10040577629999999,-0.5427484424,0.123962085,0.023986755000000002,-1.012021335,0.405578904,-0.018920911999999998,0.24444597599999998,-7.415752499999999,-8.942848199999998,66.6978273,2.6710042273847989,29.734874725341797,-91.20610809326172,0.0,2.4331805112247729
23.048075914382935,-0.8347342137999999,0.010742175999999999,0.10030506839999999,-0.5413385317999999,0.223937415,0.036071685,-0.93603276,0.402527144,-0.013122568,0.241394216,-7.360821,-8.9648208,66.50007389999999,1.8672071799471155,29.734874725341797,-91.20610809326172,0.0,2.4331805112247729
23.1539409160614,-0.8355734463,0.010440052299999999,0.10003651399999999,-0.5400964677,0.123962085,-0.019958445000000002,-1.0319797800000001,0.402527144,-0.013122568,0.24444597599999998,-7.305889499999999,-8.9648208,66.33527939999999,1.8672071799471155,29.734874725341797,-91.20610809326172,0.0,2.4331805112247729
23.297380924224854,-0.8368490796999999,0.009936512799999998,0.09983509819999999,-0.5381494483,0.13201870500000001,-0.00805662,-0.97594965,0.402527144,-0.013122568,0.241394216,-7.217999099999999,-8.997779699999999,66.0496356,1.8672071799471155,29.734899520874023,-91.20610046386719,14.958783251750901,2.8127732908867471
23.40279984474182,-0.8370504954999999,0.009600819799999999,0.09923085079999999,-0.5363367061,0.140075325,-0.00805662,-1.051938225,0.39978056,-0.010070808,0.24444597599999998,-7.1520813,-8.9867934,65.86286849999999,1.4430236113228148,29.734899520874023,-91.20610046386719,14.958783251750901,2.8127732908867471
23.502960920333862,-0.8386618218999999,0.009164418899999999,0.09909657359999999,-0.5354974736,0.136047015,0.00402831,-0.955991205,0.3967288,-0.0015258799999999999,0.24444597599999998,-7.0641909,-8.997779699999999,65.6761014,0.22036729612318595,29.734899520874023,-91.20610046386719,14.958783251750901,2.8127732908867471
23.604726791381836,-0.8387625297999999,0.0084594636,0.0988951578,-0.5336511621,0.14392053,0.028015065,-1.012021335,0.39978056,-0.00457764,0.247802912,-6.9763005,-9.0527112,65.4893343,0.65602987408175295,29.734899520874023,-91.20610046386719,14.958783251750901,2.8127732908867471
23.70089101791382,-0.8405417027,0.0082580478,0.0987273113,-0.5325769444999999,0.16003377,-0.01208493,-0.97997796,0.402527144,-0.007324224,0.247802912,-6.921368999999999,-9.0417249,65.2696083,1.0424162112041699,29.734899520874023,-91.20610046386719,14.958783251750901,2.8127732908867471
23.80600595474243,-0.8415823509999999,0.007989493399999999,0.09819020249999999,-0.5310663259999999,0.20800728000000002,0.023986755000000002,-1.007993025,0.393982216,-0.004272464,0.24444597599999998,-6.844464899999999,-9.019752299999999,65.0498823,0.62130865356175491,29.734899520874023,-91.20610046386719,14.958783251750901,2.8127732908867471
23.906800985336304,-0.8424887220999999,0.0074523846,0.09802235599999999,-0.5296899847,0.123962085,0.01208493,-0.968076135,0.393982216,-0.004272464,0.24444597599999998,-6.767560799999999,-9.0527112,64.8521289,0.62130865356175491,29.734899520874023,-91.20610046386719,14.958783251750901,2.8127732908867471
24.0554518699646,-0.8437979247999999,0.0065460135,0.09728383139999999,-0.5277429653,0.20800728000000002,0.00805662,-0.88805925,0.39978056,0.0015258799999999999,0.247802912,-6.6137526,-9.0527112,64.5774714,359.78131488057704,29.734899520874023,-91.20610046386719,14.958783251750901,2.8127732908867471
24.14983081817627,-0.8438314940999999,0.0061767511999999995,0.09667958399999999,-0.5259302230999999,0.119933775,0.00805662,-0.97192134,0.391235632,0.00457764,0.241394216,-6.5368485,-9.0307386,64.3907043,359.32964315391291,29.734899520874023,-91.20610046386719,14.958783251750901,2.8127732908867471
24.257458925247192,-0.845610667,0.005975335399999999,0.0967131533,-0.5249231441,0.11206026,0.036071685,-1.03600809,0.405273728,-0.001220704,0.241394216,-6.492903299999999,-9.0527112,64.1819646,0.17257712723881014,29.734926223754883,-91.20610046386719,0.0,3.0882745570139281
24.36206293106079,-0.845610667,0.0055725038,0.09631032169999999,-0.5230432633,0.16003377,0.00402831,-0.947934585,0.404968552,0.01068116,0.241394216,-6.4269855,-9.0636975,63.995197499999996,358.48915790091593,29.734926223754883,-91.20610046386719,0.0,3.0882745570139281
24.457412004470825,-0.8472555626999999,0.0047668406,0.0962096138,-0.5223718773,0.123962085,-0.015930135,-0.89208756,0.402527144,0.007019048,0.257568544,-6.3171225,-9.096656399999999,63.8194167,359.00100880412771,29.734926223754883,-91.20610046386719,0.0,3.0882745570139281
24.56233787536621,-0.8473227013,0.0040618853,0.0960417673,-0.5205927043999999,0.071960265,0.00805662,-1.016049645,0.407715136,0.013427744,0.24444597599999998,-6.2292321,-9.1296153,63.63264959999999,358.11369505039556,29.734926223754883,-91.20610046386719,0.0,3.0882745570139281
24.66290593147278,-0.8489004584,0.0035247764999999996,0.09577321289999999,-0.5198206105,0.223937415,0.00402831,-0.860044185,0.3967288,0.015869152,0.254211608,-6.1413417,-9.1406016,63.456868799999995,357.70938995736145,29.734926223754883,-91.20610046386719,0.0,3.0882745570139281
24.764524936676025,-0.8498068295,0.0030548063,0.09533681199999999,-0.5183771305999999,0.088073505,0.01208493,-1.016049645,0.407715136,0.013427744,0.241394216,-6.0534513,-9.1406016,63.24812909999999,358.11369505039556,29.734926223754883,-91.20610046386719,0.0,3.0882745570139281
24.914174795150757,-0.8510824628999999,0.0025176975,0.0949004111,-0.5163629726,0.043945200000000004,0.00805662,-0.995908095,0.404968552,0.010070808,0.251159848,-5.943588299999999,-9.1406016,62.9624853,358.57545508302547,29.734926223754883,-91.20610046386719,0.0,3.0882745570139281
25.014803886413574,-0.8519552646999999,0.0021484352,0.09496754969999999,-0.5148859234,0.09594702000000001,0.019958445000000002,-1.08800991,0.402221968,0.010375984,0.247802912,-5.8996431,-9.1845468,62.764731899999994,358.52228789607364,29.734926223754883,-91.20610046386719,0.0,3.0882745570139281
25.116069793701172,-0.8527609278999999,0.0019134500999999997,0.09463185669999999,-0.5136438593,0.219909105,0.039916890000000003,-0.97997796,0.402221968,0.019226088,0.247802912,-5.844711599999999,-9.173560499999999,62.588951099999996,357.26336209306021,29.73495864868164,-91.20609283447266,11.547330831641489,4.289153143144901
25.21723985671997,-0.8534994524999999,0.0013427719999999999,0.09429616369999999,-0.5125025031,0.075988575,0.0,-1.0319797800000001,0.402221968,0.019226088,0.247802912,-5.756821199999999,-9.1845468,62.424156599999996,357.26336209306021,29.73495864868164,-91.20609283447266,11.547330831641489,4.289153143144901
25.321826934814453,-0.8534994524999999,0.0008392324999999999,0.09406117859999999,-0.5108576074,0.09191871,0.00402831,-1.047909915,0.40191679199999997,0.028076192,0.247802912,-5.6909034,-9.2065194,62.270348399999996,356.00405274238369,29.73495864868164,-91.20609283447266,11.547330831641489,4.289153143144901
25.406989812850952,-0.8550100709999999,0.0006378167,0.09389333209999999,-0.5100183748999999,0.175963905,0.015930135,-0.94006107,0.396423624,0.022277848,0.24444597599999998,-5.6359718999999995,-9.2065194,62.0835813,356.78352794555764,29.73495864868164,-91.20609283447266,11.547330831641489,4.289153143144901
25.517997980117798,-0.8549093630999999,0.00020141579999999998,0.0933562233,-0.5085413257,0.071960265,0.043945200000000004,-1.02795147,0.396423624,0.024719256,0.251159848,-5.5480814999999994,-9.1845468,61.9517457,356.4319036953288,29.73495864868164,-91.20609283447266,11.547330831641489,4.289153143144901
25.619471788406372,-0.8563528429999999,3.35693e-05,0.0932219461,-0.5079035089999999,0.188048835,0.01208493,-0.99206289,0.39367704,0.021972672,0.247802912,-5.5041363,-9.1845468,61.7869512,356.80541053488957,29.73495864868164,-91.20609283447266,11.547330831641489,4.289153143144901
25.770598888397217,-0.8575277684999999,-0.00016784649999999999,0.09261769869999999,-0.5060571975,0.14794884,0.0,-0.88000263,0.40466337599999996,0.03662112,0.251159848,-5.4272322,-9.151587899999999,61.52327999999999,354.82894758199751,29.73495864868164,-91.20609283447266,11.547330831641489,4.289153143144901
25.871580839157104,-0.8582327237999999,-0.0001342772,0.09251699079999999,-0.5048487026999999,0.11206026,-0.015930135,-0.947934585,0.40191679199999997,0.030822776,0.251159848,-5.4162459,-9.1406016,61.35848549999999,355.61460222333051,29.73495864868164,-91.20609283447266,11.547330831641489,4.289153143144901
25.97352385520935,-0.8590048176999999,-3.35693e-05,0.09194631269999999,-0.5036402079,0.13201870500000001,-0.01208493,-1.016049645,0.388183872,0.0305176,0.254211608,-5.372300699999999,-9.0856701,61.193690999999994,355.50486038728081,29.73495864868164,-91.20609283447266,11.547330831641489,4.289153143144901
26.078248977661133,-0.8588705404999999,-0.00023498509999999998,0.09124135739999999,-0.5021295894,0.11608857,-0.00402831,-0.995908095,0.39367704,0.03356936,0.251159848,-5.3173692,-9.0527112,61.05086909999999,355.12610357779522,29.73495864868164,-91.20609283447266,11.547330831641489,4.289153143144901
26.174431800842285,-0.8603475896999999,-0.00040283159999999997,0.0913420653,-0.5014917727,0.10803195,0.01208493,-1.08800991,0.40191679199999997,0.036926296,0.24444597599999998,-5.284410299999999,-9.0636975,60.89706089999999,354.75066003889737,29.734989166259766,-91.20608520507812,12.247861226984298,3.6094809923697331
26.27907085418701,-0.860045466,-0.0005371088,0.0910063723,-0.49981330769999993,0.10803195,-0.00805662,-0.87597432,0.39367704,0.03662112,0.254211608,-5.2514514,-9.0527112,60.74325269999999,354.68545433005522,29.734989166259766,-91.20608520507812,12.247861226984298,3.6094809923697331
26.37897300720215,-0.8615896538,-0.0007720938999999999,0.09080495649999999,-0.49937690679999996,0.19592235,0.00402831,-1.055966535,0.38787869599999997,0.03967288,0.251159848,-5.196519899999999,-9.0527112,60.6004308,354.16000072694095,29.734989166259766,-91.20608520507812,12.247861226984298,3.6094809923697331
26.47995400428772,-0.8612539607999999,-0.0010742176,0.09026784769999999,-0.4979334269,0.16809039,-0.036071685,-0.91991952,0.396423624,0.033874536,0.24444597599999998,-5.1415884,-9.0417249,60.468595199999996,355.11592019607519,29.734989166259766,-91.20608520507812,12.247861226984298,3.6094809923697331
26.581615924835205,-0.8628317178999999,-0.0014099105999999999,0.09023427839999999,-0.4973627488,0.136047015,0.039916890000000003,-0.91991952,0.39367704,0.033874536,0.247802912,-5.0756706,-9.0417249,60.325773299999994,355.08201176841533,29.734989166259766,-91.20608520507812,12.247861226984298,3.6094809923697331
26.73003602027893,-0.8636709504,-0.0020812966,0.09033498629999999,-0.49585213029999997,0.13201870500000001,0.039916890000000003,-0.895932765,0.396423624,0.03356936,0.251159848,-4.9987664999999994,-9.096656399999999,60.11703359999999,355.1597109241273,29.734989166259766,-91.20608520507812,12.247861226984298,3.6094809923697331
26.831031799316406,-0.8642751978,-0.0025176975,0.0897307389,-0.49494575919999995,0.179992215,-0.01208493,-0.97594965,0.39062527999999996,0.036926296,0.24444597599999998,-4.8998897999999995,-9.0636975,59.985198,354.59980585088618,29.734989166259766,-91.20608520507812,12.247861226984298,3.6094809923697331
26.93241596221924,-0.8648458759,-0.0030212369999999995,0.08946218449999999,-0.49397224949999996,0.15197715,0.09997533,-0.97594965,0.396423624,0.04272464,0.247802912,-4.833971999999999,-9.074683799999999,59.853362399999995,353.84867878973932,29.734989166259766,-91.20608520507812,12.247861226984298,3.6094809923697331
27.03302788734436,-0.8654501232999999,-0.0032897913999999995,0.0893279073,-0.49296517049999994,0.028015065,-0.00402831,-0.964047825,0.39367704,0.03662112,0.251159848,-4.7900268,-9.0856701,59.71054049999999,354.68545433005522,29.734989166259766,-91.20608520507812,12.247861226984298,3.6094809923697331
27.134658813476562,-0.8660879399999999,-0.0035247764999999996,0.0885222441,-0.49195809149999997,0.20397897,0.0,-1.055966535,0.39367704,0.03967288,0.251159848,-4.7021364,-9.019752299999999,59.56771859999999,354.24543466889781,29.734989166259766,-91.20608520507812,12.247861226984298,3.6094809923697331
27.238956928253174,-0.8658193855999999,-0.0037597615999999997,0.08788442739999999,-0.49048104229999995,0.16003377,0.00402831,-0.955991205,0.39062527999999996,0.045471224,0.247802912,-4.647204899999999,-8.997779699999999,59.4248967,353.36029580962651,29.73502540588379,-91.2060775756836,10.359623235737615,3.848173229070404
27.33512783050537,-0.8672628655,-0.0041961624999999995,0.08728018,-0.4901453493,0.11206026,-0.028015065,-0.995908095,0.393371864,0.048522984,0.251159848,-4.548328199999999,-8.942848199999998,59.304047399999995,352.96800508132691,29.73502540588379,-91.2060775756836,10.359623235737615,3.848173229070404
27.486220836639404,-0.8681356672999999,-0.004364008999999999,0.0866423633,-0.48866830009999995,0.19995066,-0.01208493,-1.020077955,0.39062527999999996,0.048522984,0.247802912,-4.4824104,-8.898902999999999,59.09530769999999,352.91906155721222,29.73502540588379,-91.2060775756836,10.359623235737615,3.848173229070404
27.587225914001465,-0.8687399146999999,-0.004364008999999999,0.0866423633,-0.48762765179999995,0.14794884,0.00402831,-1.059994845,0.39062527999999996,0.045471224,0.247802912,-4.460437799999999,-8.898902999999999,58.9634721,353.36029580962651,29.73502540588379,-91.2060775756836,10.359623235737615,3.848173229070404
27.68917679786682,-0.8693441620999999,-0.0043304397,0.08660879399999999,-0.48655343419999997,0.14392053,0.075988575,-1.007993025,0.382385528,0.048522984,0.251159848,-4.4494514999999994,-8.9098893,58.820650199999996,352.76807816671845,29.73502540588379,-91.2060775756836,10.359623235737615,3.848173229070404
27.793808937072754,-0.8699148402,-0.0044647168999999995,0.0868773484,-0.4854792166,0.067931955,0.028015065,-1.18395693,0.393371864,0.051269568,0.251159848,-4.4494514999999994,-8.942848199999998,58.677828299999994,352.57429291231301,29.73502540588379,-91.2060775756836,10.359623235737615,3.848173229070404
27.889944791793823,-0.8704519489999999,-0.004431147599999999,0.0868102098,-0.4845392762,0.20397897,-0.00402831,-0.88805925,0.393371864,0.051269568,0.251159848,-4.4384651999999996,-8.942848199999998,58.54599269999999,352.57429291231301,29.73502540588379,-91.2060775756836,10.359623235737615,3.848173229070404
27.992082834243774,-0.8708883499,-0.0047668406,0.08691091769999999,-0.48373361299999995,0.06005844,-0.01208493,-0.98400627,0.39062527999999996,0.054321328,0.254211608,-4.4055063,-8.975807099999999,58.447115999999994,352.08307859506851,29.73502540588379,-91.2060775756836,10.359623235737615,3.848173229070404
28.08324098587036,-0.8713583200999999,-0.0051361029,0.0868773484,-0.4828272419,0.088073505,0.043945200000000004,-1.02795147,0.382080352,0.054321328,0.251159848,-4.3505747999999995,-8.997779699999999,58.3262667,351.90834258271343,29.73502540588379,-91.2060775756836,10.359623235737615,3.848173229070404
28.23181986808777,-0.8722311219,-0.0052703800999999995,0.08724661069999999,-0.4812159155,0.16003377,0.067931955,-0.93200445,0.39062527999999996,0.054626504,0.241394216,-4.3395885,-9.0417249,58.117526999999995,352.03917016428352,29.735055923461914,-91.20608520507812,347.75214670172574,4.1136608371452903
28.343865871429443,-0.8727682307,-0.0053039494,0.0872130414,-0.48024240579999994,0.171935595,0.052001820000000004,-0.947934585,0.393371864,0.051269568,0.251159848,-4.3286022,-9.0527112,57.98569139999999,352.57429291231301,29.735055923461914,-91.20608520507812,347.75214670172574,4.1136608371452903
28.448490858078003,-0.8733389088,-0.0055389344999999994,0.0870451949,-0.47923532679999997,0.088073505,0.015930135,-1.02795147,0.396118448,0.051269568,0.251159848,-4.284656999999999,-9.0527112,57.8538558,352.62521212322991,29.735055923461914,-91.20608520507812,347.75214670172574,4.1136608371452903
28.549916982650757,-0.8738088789999999,-0.0056732117,0.08667593259999999,-0.4784632329,0.09997533,-0.00402831,-0.899961075,0.38757352,0.057373087999999996,0.247802912,-4.2407118,-9.0307386,57.743992799999994,351.57957121928916,29.735055923461914,-91.20608520507812,347.75214670172574,4.1136608371452903
28.647019863128662,-0.8744131263999999,-0.0060089047,0.08613882379999999,-0.47745615389999996,0.184020525,-0.00805662,-0.960019515,0.39062527999999996,0.057373087999999996,0.251159848,-4.1638077,-8.997779699999999,57.60117089999999,351.64442350779734,29.735055923461914,-91.20608520507812,347.75214670172574,4.1136608371452903
28.74842095375061,-0.8749502351999999,-0.006243889799999999,0.08613882379999999,-0.47644907489999994,0.10400364000000001,0.019958445000000002,-1.072079775,0.38513211199999997,0.054321328,0.251159848,-4.1308488,-9.008766,57.4693353,351.97162107116645,29.735055923461914,-91.20608520507812,347.75214670172574,4.1136608371452903
28.849082946777344,-0.8755209132999999,-0.006579582799999999,0.0859038387,-0.47547556519999995,0.123962085,0.01208493,-0.995908095,0.382080352,0.057373087999999996,0.251159848,-4.0759172999999995,-9.008766,57.326513399999996,351.46028332317997,29.735055923461914,-91.20608520507812,347.75214670172574,4.1136608371452903
28.950397968292236,-0.8760244528,-0.006881706499999999,0.0850981755,-0.474669902,0.140075325,0.047973510000000004,-0.995908095,0.384826936,0.060119672,0.254211608,-3.9880268999999995,-8.9538345,57.2166504,351.12072691473611,29.735055923461914,-91.20608520507812,347.75214670172574,4.1136608371452903
29.051090955734253,-0.8765615616,-0.0073516766999999995,0.08449392809999999,-0.4737971002,0.136047015,0.0,-0.955991205,0.38757352,0.062866256,0.257568544,-3.9001365,-8.920875599999999,57.0848148,350.78659732268102,29.735055923461914,-91.20608520507812,347.75214670172574,4.1136608371452903
29.203452825546265,-0.8773672248,-0.0079559241,0.08466177459999999,-0.47225291239999995,0.119933775,0.01208493,-0.943906275,0.384826936,0.057067912,0.254211608,-3.8342186999999996,-8.975807099999999,56.88706139999999,351.56479764339667,29.73508644104004,-91.20609283447266,347.7521502907731,3.613911912064947
29.30429983139038,-0.8779043336,-0.0082580478,0.0847624825,-0.47117869479999996,0.088073505,0.039916890000000003,-1.007993025,0.382080352,0.066223192,0.251159848,-3.7902734999999996,-9.008766,56.7442395,350.1670284177938,29.73508644104004,-91.20609283447266,347.7521502907731,3.613911912064947
29.405680894851685,-0.8784750117,-0.008627310099999999,0.08499746759999999,-0.4701044772,0.06005844,0.019958445000000002,-0.960019515,0.38787869599999997,0.057373087999999996,0.251159848,-3.7573145999999995,-9.0636975,56.6014176,351.58610138908574,29.73508644104004,-91.20609283447266,347.7521502907731,3.613911912064947
29.510425806045532,-0.8790792591,-0.008862295199999998,0.08472891319999999,-0.468963121,0.10400364000000001,-0.023986755000000002,-1.007993025,0.384826936,0.069274952,0.24444597599999998,-3.7133694,-9.0527112,56.4476094,349.79514606412073,29.73508644104004,-91.20609283447266,347.7521502907731,3.613911912064947
29.60703992843628,-0.8797170757999999,-0.0089965724,0.08442678949999999,-0.4678217648,0.21203559,0.0,-0.903989385,0.384826936,0.066223192,0.247802912,-3.6694242,-9.0307386,56.2938012,350.23585263066894,29.73508644104004,-91.20609283447266,347.7521502907731,3.613911912064947
29.70760989189148,-0.8802541845999999,-0.009600819799999999,0.0843596509,-0.46684825509999994,0.123962085,0.023986755000000002,-1.012021335,0.38757352,0.072021536,0.251159848,-3.5925200999999998,-9.0636975,56.161965599999995,349.47298571708342,29.73508644104004,-91.20609283447266,347.7521502907731,3.613911912064947
29.809231996536255,-0.8808248626999999,-0.0101714979,0.0843932202,-0.46577403749999996,0.136047015,0.032043375,-0.93200445,0.390320104,0.069274952,0.247802912,-3.5266022999999995,-9.096656399999999,56.019143699999994,349.93580780358639,29.73508644104004,-91.20609283447266,347.7521502907731,3.613911912064947
29.90961980819702,-0.8813619715,-0.0104736216,0.0847624825,-0.46466625059999994,0.13201870500000001,0.023986755000000002,-1.012021335,0.390320104,0.06866459999999999,0.257568544,-3.5046296999999997,-9.1625742,55.87632179999999,350.02268971807376,29.73508644104004,-91.20609283447266,347.7521502907731,3.613911912064947
30.010145902633667,-0.8818990803,-0.010775745299999999,0.08482962109999999,-0.46359203299999996,0.080016885,-0.036071685,-0.89208756,0.38757352,0.075073296,0.251159848,-3.4606844999999997,-9.1845468,55.7334999,349.03752099576815,29.73508644104004,-91.20609283447266,347.7521502907731,3.613911912064947
30.152179956436157,-0.8828054513999999,-0.0113464234,0.0846953439,-0.46187999869999996,0.080016885,-0.015930135,-1.012021335,0.38757352,0.072021536,0.251159848,-3.3837803999999996,-9.2065194,55.5137739,349.47298571708342,29.73508644104004,-91.20609283447266,347.7521502907731,3.613911912064947
30.262139797210693,-0.8833761294999999,-0.011514269899999999,0.084930329,-0.46077221179999994,0.184020525,0.023986755000000002,-1.0400364,0.38757352,0.07781988,0.251159848,-3.3618078,-9.2394783,55.370951999999996,348.64669449905426,29.73511505126953,-91.20610046386719,346.96269726818167,3.2763099235912514
30.364900827407837,-0.8839803769,-0.011614977799999999,0.08540029919999999,-0.45953014769999995,0.00805662,0.015930135,-0.943906275,0.395813272,0.07476812,0.254211608,-3.3618078,-9.3053961,55.206157499999996,349.30301533412131,29.73511505126953,-91.20610046386719,346.96269726818167,3.2763099235912514
30.468605995178223,-0.8846853321999999,-0.0112457155,0.08546743779999999,-0.45812023709999994,0.16406208,0.067931955,-0.951962895,0.38757352,0.07781988,0.254211608,-3.3947667,-9.294409799999999,55.0303767,348.64669449905426,29.73511505126953,-91.20610046386719,346.96269726818167,3.2763099235912514
30.564741849899292,-0.8853231489,-0.0112457155,0.0855010071,-0.4569117423,0.236022345,0.05603013,-0.968076135,0.390320104,0.080566464,0.254211608,-3.3837803999999996,-9.3053961,54.8765685,348.33729724878236,29.73511505126953,-91.20610046386719,346.96269726818167,3.2763099235912514
30.66690492630005,-0.885893827,-0.0114471313,0.0853667299,-0.45580395539999996,0.2160639,-0.019958445000000002,-0.91991952,0.393066688,0.07781988,0.251159848,-3.3398351999999996,-9.3053961,54.7227603,348.80132132695888,29.73511505126953,-91.20610046386719,346.96269726818167,3.2763099235912514
30.768109798431396,-0.8864980744,-0.011648547099999998,0.08540029919999999,-0.4546290299,0.175963905,0.023986755000000002,-1.0839816,0.395813272,0.07781988,0.254211608,-3.3068763,-9.3273687,54.5689521,348.87708572667754,29.73511505126953,-91.20610046386719,346.96269726818167,3.2763099235912514
30.920825004577637,-0.8873037375999999,-0.012353502399999999,0.08546743779999999,-0.4530177035,0.09594702000000001,0.047973510000000004,-0.999936405,0.38757352,0.080566464,0.254211608,-3.2299721999999997,-9.371313899999999,54.360212399999995,348.25693562336801,29.73511505126953,-91.20610046386719,346.96269726818167,3.2763099235912514
31.017720937728882,-0.8878408463999999,-0.0126556261,0.08587026939999999,-0.4518763473,0.039916890000000003,0.019958445000000002,-0.955991205,0.393066688,0.080566464,0.257568544,-3.2079996,-9.4372317,54.21739049999999,348.4165813953129,29.73511505126953,-91.20610046386719,346.96269726818167,3.2763099235912514
31.122068881988525,-0.8884450937999999,-0.012823472599999998,0.08593740799999999,-0.45066785249999997,0.09191871,0.032043375,-1.1079683550000001,0.395813272,0.083618224,0.254211608,-3.1750407,-9.448217999999999,54.052595999999994,348.07127343155935,29.73511505126953,-91.20610046386719,346.96269726818167,3.2763099235912514
31.225974798202515,-0.8890829104999999,-0.013092027,0.08523245269999999,-0.44956006559999995,0.23199403500000002,0.00402831,-0.968076135,0.393066688,0.08666998399999999,0.254211608,-3.0981365999999997,-9.4042728,53.898787799999994,347.56542868533603,29.735143661499023,-91.20610809326172,346.96270087792277,3.596893057490989
31.322091817855835,-0.8896871579,-0.013461289299999998,0.0848631904,-0.44838514009999997,0.080016885,0.0,-1.04406471,0.390014928,0.086364808,0.257568544,-3.0322188,-9.3823002,53.74497959999999,347.51392198259674,29.735143661499023,-91.20610809326172,346.96270087792277,3.596893057490989
31.42285680770874,-0.890257836,-0.013629135799999999,0.0844603588,-0.4473109225,0.279967545,0.019958445000000002,-0.899961075,0.393066688,0.0839234,0.24444597599999998,-2.9772873,-9.3603276,53.6021577,347.94778101312966,29.735143661499023,-91.20610809326172,346.96270087792277,3.596893057490989
31.524067878723145,-0.8907949447999999,-0.014300521799999999,0.08449392809999999,-0.44623670489999995,0.123962085,0.00805662,-0.903989385,0.390014928,0.092468328,0.251159848,-2.9003832,-9.393286499999999,53.4593358,346.6620638650981,29.735143661499023,-91.20610809326172,346.96270087792277,3.596893057490989
31.673828840255737,-0.8917013158999999,-0.014804061299999999,0.0841246658,-0.444457532,0.067931955,-0.00805662,-1.051938225,0.387268344,0.092468328,0.254211608,-2.8124928,-9.393286499999999,53.2176372,346.5708837300291,29.735143661499023,-91.20610809326172,346.96270087792277,3.596893057490989
31.77635884284973,-0.8922048553999999,-0.015274031499999998,0.08368826489999999,-0.4435175916,0.171935595,-0.019958445000000002,-0.960019515,0.38452176,0.08972174399999999,0.251159848,-2.7246023999999998,-9.371313899999999,53.085801599999996,346.86597769360367,29.735143661499023,-91.20610809326172,346.96270087792277,3.596893057490989
31.879552841186523,-0.8927083949,-0.015777570999999997,0.08368826489999999,-0.4424769433,0.184020525,0.019958445000000002,-1.059994845,0.392761512,0.08972174399999999,0.251159848,-2.6696709,-9.4042728,52.953965999999994,347.13225152972319,29.735143661499023,-91.20610809326172,346.96270087792277,3.596893057490989
31.983775854110718,-0.8932119343999999,-0.0163146798,0.08368826489999999,-0.44150343359999994,0.127990395,0.0,-1.003964715,0.390014928,0.101318432,0.254211608,-2.6037530999999996,-9.4372317,52.8221304,345.43754264009192,29.735143661499023,-91.20610809326172,346.96270087792277,3.596893057490989
32.069010972976685,-0.8937154739,-0.016784649999999998,0.0838225421,-0.4403956467,0.14392053,0.0,-1.016049645,0.390014928,0.095520088,0.254211608,-2.5488215999999997,-9.470190599999999,52.6793085,346.23835171397167,29.735143661499023,-91.20610809326172,346.96270087792277,3.596893057490989
32.17985987663269,-0.8942525827,-0.016952496499999997,0.0839903886,-0.4392542905,0.21203559,0.019958445000000002,-0.89208756,0.387268344,0.098571848,0.251159848,-2.526849,-9.5031495,52.5255003,345.71967522867402,29.735177993774414,-91.20612335205078,338.897243053225,4.555396801607495
32.28180980682373,-0.8947896914999999,-0.0172881895,0.0839903886,-0.43818007289999994,0.140075325,0.00805662,-0.968076135,0.38421658399999997,0.101013256,0.257568544,-2.4829038,-9.525122099999999,52.393664699999995,345.26987846282441,29.735177993774414,-91.20612335205078,338.897243053225,4.555396801607495
32.383049964904785,-0.8952932309999999,-0.0175231746,0.08368826489999999,-0.4371729939,0.288024165,-0.00805662,-0.94006107,0.392761512,0.101623608,0.247802912,-2.4279723,-9.5031495,52.250842799999994,345.49335840247568,29.735177993774414,-91.20612335205078,338.897243053225,4.555396801607495
32.48405194282532,-0.8958639090999999,-0.017858867599999998,0.0838225421,-0.43599806839999994,0.036071685,-0.00805662,-0.97192134,0.390014928,0.101318432,0.251159848,-2.3840271,-9.5361084,52.1080209,345.43754264009192,29.735177993774414,-91.20612335205078,338.897243053225,4.555396801607495
32.63629078865051,-0.8966024336999999,-0.018463115,0.0844603588,-0.4343196034,0.015930135,0.071960265,-1.003964715,0.387268344,0.098266672,0.254211608,-2.3400819,-9.645971399999999,51.8882949,345.76208641071537,29.735177993774414,-91.20612335205078,338.897243053225,4.555396801607495
32.7368278503418,-0.8970724038999999,-0.0189666545,0.0846282053,-0.4332789551,0.10400364000000001,0.036071685,-1.099911735,0.38696316799999997,0.104370192,0.254211608,-2.2851504,-9.6899166,51.756459299999996,344.90558761649186,29.735177993774414,-91.20612335205078,338.897243053225,4.555396801607495
32.837461948394775,-0.8975759433999999,-0.019134500999999998,0.08442678949999999,-0.43223830679999997,0.184020525,0.032043375,-1.02392316,0.38147,0.110168536,0.254211608,-2.2521915,-9.6789303,51.613637399999995,343.89128253479089,29.735177993774414,-91.20612335205078,338.897243053225,4.555396801607495
32.94133496284485,-0.8980459136,-0.0191680703,0.08409109649999999,-0.431365505,0.10400364000000001,-0.043945200000000004,-1.099911735,0.390014928,0.104370192,0.254211608,-2.2192325999999998,-9.645971399999999,51.5037744,345.01836742760906,29.735177993774414,-91.20612335205078,338.897243053225,4.555396801607495
33.037405014038086,-0.8985158837999999,-0.0193359168,0.08362112629999999,-0.4304255646,0.175963905,0.039916890000000003,-1.020077955,0.38696316799999997,0.113220296,0.251159848,-2.1643011,-9.6130125,51.371938799999995,343.69122338693603,29.735177993774414,-91.20612335205078,338.897243053225,4.555396801607495
33.13923692703247,-0.8990194233,-0.0193359168,0.08321829469999999,-0.42948562419999997,0.088073505,0.032043375,-1.059994845,0.390014928,0.104065016,0.257568544,-2.1313421999999997,-9.569067299999999,51.2510895,345.06021195708615,29.735214233398438,-91.20614624023438,331.25889097934601,4.7884348314103704
33.24197697639465,-0.8994893934999999,-0.0193359168,0.0833190026,-0.42847854519999995,0.09997533,0.039916890000000003,-1.111996665,0.38147,0.110168536,0.254211608,-2.1313421999999997,-9.5800536,51.1192539,343.89128253479089,29.735214233398438,-91.20614624023438,331.25889097934601,4.7884348314103704
33.34440898895264,-0.8998922250999999,-0.0194366247,0.0833861412,-0.42763931269999994,0.136047015,0.00402831,-0.943906275,0.38421658399999997,0.110168536,0.254211608,-2.1093696,-9.6020262,51.0093909,344.0005231486337,29.735214233398438,-91.20614624023438,331.25889097934601,4.7884348314103704
33.49370980262756,-0.900328626,-0.0194366247,0.082916171,-0.42676651089999995,0.16809039,0.023986755000000002,-0.903989385,0.38696316799999997,0.104370192,0.254211608,-2.0764107,-9.547094699999999,50.899527899999995,344.90558761649186,29.735214233398438,-91.20614624023438,331.25889097934601,4.7884348314103704
33.59511995315552,-0.9004964725,-0.0196716098,0.08294974029999999,-0.42639724859999995,0.15600546,0.0,-0.97997796,0.38696316799999997,0.104370192,0.251159848,-2.0544381,-9.569067299999999,50.84459639999999,344.90558761649186,29.735214233398438,-91.20614624023438,331.25889097934601,4.7884348314103704
33.696770906448364,-0.9005971803999999,-0.0200408721,0.08335257189999999,-0.42609512489999996,0.06005844,0.036071685,-0.960019515,0.38970975199999996,0.113220296,0.247802912,-2.0324655,-9.623998799999999,50.811637499999996,343.80011568699769,29.735214233398438,-91.20614624023438,331.25889097934601,4.7884348314103704
33.79689884185791,-0.9007650268999999,-0.020074441399999997,0.0834868491,-0.4257594319,0.119933775,0.023986755000000002,-1.059994845,0.38421658399999997,0.113220296,0.254211608,-2.0324655,-9.645971399999999,50.76769229999999,343.58089782517294,29.735214233398438,-91.20614624023438,331.25889097934601,4.7884348314103704
33.90246081352234,-0.9007985961999999,-0.020376565099999997,0.0838225421,-0.42559158539999997,0.01208493,0.039916890000000003,-1.020077955,0.38970975199999996,0.113220296,0.254211608,-2.0104929,-9.6899166,50.745719699999995,343.80011568699769,29.735214233398438,-91.20614624023438,331.25889097934601,4.7884348314103704
33.99826693534851,-0.9008657347999999,-0.0202422879,0.08375540349999999,-0.4254908775,0.10803195,-0.023986755000000002,-0.91991952,0.38147,0.107421952,0.251159848,-2.0214792,-9.6789303,50.734733399999996,344.27278033061498,29.735214233398438,-91.20614624023438,331.25889097934601,4.7884348314103704
34.10263991355896,-0.9008657347999999,-0.020074441399999997,0.08358755699999999,-0.4254908775,0.23199403500000002,0.01208493,-1.04406471,0.38970975199999996,0.113220296,0.251159848,-2.0324655,-9.6569577,50.734733399999996,343.80011568699769,29.735214233398438,-91.20614624023438,331.25889097934601,4.7884348314103704
34.23802995681763,-0.9009328734,-0.0200408721,0.08385611139999999,-0.4252894617,-0.01208493,0.00402831,-1.020077955,0.392456336,0.110168536,0.254211608,-2.0434517999999997,-9.6789303,50.7127608,344.31975132992517,29.735248565673828,-91.20614624023438,0.0,3.8125167924278531
34.301657915115356,-0.9009328734,-0.0199401642,0.0839568193,-0.4252894617,0.15600546,-0.00402831,-0.97594965,0.38970975199999996,0.107116776,0.254211608,-2.0654244,-9.6789303,50.7127608,344.63104877218581,29.735248565673828,-91.20614624023438,0.0,3.8125167924278531
34.451647996902466,-0.9008657347999999,-0.0199401642,0.0850310369,-0.42525589239999995,0.188048835,0.036071685,-0.92394783,0.38970975199999996,0.10986336,0.257568544,-2.1093696,-9.799779599999999,50.7237471,344.25628630816919,29.735248565673828,-91.20614624023438,0.0,3.8125167924278531
34.55414581298828,-0.9008321654999999,-0.0196380405,0.08442678949999999,-0.42542373889999996,0.244078965,0.015930135,-0.98400627,0.38421658399999997,0.113220296,0.251159848,-2.1203559,-9.722875499999999,50.745719699999995,343.58089782517294,29.735248565673828,-91.20614624023438,0.0,3.8125167924278531
34.65526294708252,-0.9007314576,-0.019604471199999998,0.08419180439999999,-0.42569229329999997,0.084045195,0.01208493,-1.103940045,0.38421658399999997,0.106506424,0.267334176,-2.1093696,-9.6899166,50.76769229999999,344.50640668519077,29.735248565673828,-91.20614624023438,0.0,3.8125167924278531
34.75710701942444,-0.9006643189999999,-0.0196380405,0.0843932202,-0.4257594319,0.036071685,0.019958445000000002,-1.020077955,0.387268344,0.101318432,0.251159848,-2.1203559,-9.7118892,50.7786786,345.33869793669965,29.735248565673828,-91.20614624023438,0.0,3.8125167924278531
34.86112880706787,-0.9005300418,-0.019805886999999998,0.0845274974,-0.42602798629999994,0.140075325,-0.00805662,-1.03600809,0.38421658399999997,0.104065016,0.257568544,-2.1093696,-9.7338618,50.811637499999996,344.84504864159351,29.735248565673828,-91.20614624023438,0.0,3.8125167924278531
34.957119941711426,-0.9004629031999999,-0.0197387484,0.0846953439,-0.4261286942,0.15197715,-0.039916890000000003,-0.903989385,0.38696316799999997,0.104065016,0.257568544,-2.1313421999999997,-9.7558344,50.833610099999994,344.94771768918127,29.735248565673828,-91.20614624023438,0.0,3.8125167924278531
35.061861991882324,-0.9002950566999999,-0.019973733499999997,0.08482962109999999,-0.42646438719999996,0.175963905,0.0,-1.07995329,0.38696316799999997,0.104370192,0.254211608,-2.1203559,-9.777807,50.8775553,344.90558761649186,29.735248565673828,-91.20614624023438,0.0,3.8125167924278531
35.20615196228027,-0.8999593637,-0.0205108423,0.08456106669999999,-0.4272029118,0.15197715,0.015930135,-0.98803458,0.38970975199999996,0.10772712799999999,0.24444597599999998,-2.0544381,-9.766820699999998,50.9654457,344.54765047697009,29.735279083251953,-91.20614624023438,0.0,3.7319449902015416
35.31039381027222,-0.8988515767999999,-0.020678688799999997,0.0843932202,-0.4272029118,0.10803195,0.028015065,-0.951962895,0.387268344,0.101318432,0.254211608,-2.0324655,-9.777807,51.0203772,345.33869793669965,29.735279083251953,-91.20614624023438,0.0,3.7319449902015416
35.411274909973145,-0.8995565321,-0.0209136739,0.08513174479999999,-0.42790786709999995,0.06408675,0.00805662,-1.1079683550000001,0.38970975199999996,0.110473712,0.247802912,-2.0434517999999997,-9.8547111,51.053336099999996,344.17319190348042,29.735279083251953,-91.20614624023438,0.0,3.7319449902015416
35.51196599006653,-0.8993551163,-0.0207122581,0.085266022,-0.4283106987,0.23199403500000002,0.028015065,-0.947934585,0.392761512,0.101318432,0.254211608,-2.0764107,-9.8547111,51.1082676,345.53509172742872,29.735279083251953,-91.20614624023438,0.0,3.7319449902015416
35.61307382583618,-0.8992208391,-0.020309426499999998,0.0850310369,-0.42864639169999996,0.2160639,0.019958445000000002,-1.012021335,0.390014928,0.104370192,0.251159848,-2.1093696,-9.8107659,51.152212799999994,345.01836742760906,29.735279083251953,-91.20614624023438,0.0,3.7319449902015416
35.714871883392334,-0.8990529925999999,-0.019973733499999997,0.0842925123,-0.4291835005,0.2160639,-0.01208493,-1.02795147,0.387268344,0.098571848,0.247802912,-2.1203559,-9.7118892,51.218130599999995,345.71967522867402,29.735279083251953,-91.20614624023438,0.0,3.7319449902015416
35.81132793426514,-0.8988851460999999,-0.019503763299999997,0.0844603588,-0.42948562419999997,0.028015065,0.01208493,-1.012021335,0.392761512,0.101318432,0.251159848,-2.1752873999999998,-9.700902899999999,51.2620758,345.53509172742872,29.735279083251953,-91.20614624023438,0.0,3.7319449902015416
35.916553020477295,-0.8987844382,-0.019033793099999998,0.08529959129999999,-0.42958633209999997,0.06005844,0.067931955,-0.899961075,0.390014928,0.101318432,0.251159848,-2.2741640999999997,-9.766820699999998,51.284048399999996,345.43754264009192,29.735279083251953,-91.20614624023438,0.0,3.7319449902015416
36.012640953063965,-0.8985830223999999,-0.018832377299999998,0.0856688536,-0.4299555944,0.036071685,-0.00402831,-1.124081595,0.392761512,0.104370192,0.254211608,-2.3181092999999997,-9.799779599999999,51.3389799,345.11847029685947,29.735279083251953,-91.20614624023438,0.0,3.7319449902015416
36.16527986526489,-0.8983816065999999,-0.0181945606,0.0861723931,-0.43029128739999994,0.09594702000000001,0.075988575,-0.97192134,0.38696316799999997,0.104370192,0.247802912,-2.4059996999999997,-9.821752199999999,51.39391139999999,344.90558761649186,29.735309600830078,-91.20614624023438,0.0,3.5437938643675007
36.26931095123291,-0.8972402503999999,-0.018026714099999997,0.0861723931,-0.43025771809999996,0.119933775,0.0,-0.93603276,0.387268344,0.095520088,0.251159848,-2.4389586,-9.821752199999999,51.448842899999995,346.14449971648253,29.735309600830078,-91.20614624023438,0.0,3.5437938643675007
36.37031102180481,-0.8980123442999999,-0.0178924369,0.0859038387,-0.4311640892,0.25598079,0.06005844,-1.007993025,0.387268344,0.101318432,0.251159848,-2.4389586,-9.777807,51.5037744,345.33869793669965,29.735309600830078,-91.20614624023438,0.0,3.5437938643675007
36.47118091583252,-0.8978444978,-0.0179931448,0.08637380889999999,-0.43139907429999996,0.043945200000000004,0.052001820000000004,-1.047909915,0.395508096,0.098571848,0.247802912,-2.4499448999999998,-9.821752199999999,51.536733299999995,346.00537321588467,29.735309600830078,-91.20614624023438,0.0,3.5437938643675007
36.573418855667114,-0.8975423740999999,-0.0181945606,0.0864745168,-0.43200332169999994,0.11206026,0.00805662,-0.92394783,0.392761512,0.098266672,0.254211608,-2.4499448999999998,-9.843724799999999,51.613637399999995,345.95328198383316,29.735309600830078,-91.20614624023438,0.0,3.5437938643675007
36.67418599128723,-0.8973409582999999,-0.018127421999999997,0.0863066703,-0.4324061533,0.19995066,0.023986755000000002,-0.916074315,0.395508096,0.104370192,0.254211608,-2.4499448999999998,-9.821752199999999,51.6685689,345.21727395738435,29.735309600830078,-91.20614624023438,0.0,3.5437938643675007
36.770389795303345,-0.8971395424999999,-0.0181945606,0.08637380889999999,-0.4328761235,0.10803195,0.01208493,-0.94006107,0.38696316799999997,0.101623608,0.247802912,-2.4499448999999998,-9.8327385,51.7235004,345.28535532443397,29.735309600830078,-91.20614624023438,0.0,3.5437938643675007
36.92265295982361,-0.8968709880999999,-0.0178924369,0.08593740799999999,-0.43351394019999995,0.123962085,0.015930135,-0.89208756,0.39825467999999997,0.095825264,0.247802912,-2.4609311999999997,-9.766820699999998,51.8004045,346.47106044078515,29.735309600830078,-91.20614624023438,0.0,3.5437938643675007
37.02713084220886,-0.895964617,-0.017556743899999998,0.0857695615,-0.43368178669999996,0.171935595,0.019958445000000002,-1.120053285,0.390014928,0.104370192,0.251159848,-2.5048763999999997,-9.7558344,51.8773086,345.01836742760906,29.735309600830078,-91.20614624023438,0.0,3.5437938643675007
37.12762689590454,-0.8964345871999999,-0.017153912299999997,0.0859038387,-0.4344203113,0.15600546,0.043945200000000004,-0.860044185,0.392761512,0.098266672,0.254211608,-2.5488215999999997,-9.722875499999999,51.932240099999994,345.95328198383316,29.735309600830078,-91.20614624023438,0.0,3.5437938643675007
37.229676961898804,-0.8953939389,-0.016683942099999998,0.0857359922,-0.43438674199999994,0.2160639,0.06005844,-0.98803458,0.39825467999999997,0.101623608,0.247802912,-2.5927667999999997,-9.7118892,51.987171599999996,345.68517308959514,29.73534393310547,-91.20614624023438,0.0,3.9674786079278244
37.32582688331604,-0.8959310476999999,-0.0163146798,0.085601715,-0.4355280982,0.16809039,0.0,-0.943906275,0.392761512,0.08972174399999999,0.251159848,-2.6367119999999997,-9.645971399999999,52.075061999999996,347.13225152972319,29.73534393310547,-91.20614624023438,0.0,3.9674786079278244
37.43061184883118,-0.8956960625999999,-0.0159118482,0.0857695615,-0.43599806839999994,0.071960265,0.028015065,-0.91991952,0.392761512,0.08972174399999999,0.247802912,-2.6916434999999996,-9.645971399999999,52.1409798,347.13225152972319,29.73534393310547,-91.20614624023438,0.0,3.9674786079278244
37.53102087974548,-0.8954275081999999,-0.015676863099999997,0.08593740799999999,-0.43656874649999994,0.028015065,0.039916890000000003,-1.0400364,0.38452176,0.08972174399999999,0.251159848,-2.7246023999999998,-9.645971399999999,52.2178839,346.86597769360367,29.73534393310547,-91.20614624023438,0.0,3.9674786079278244
37.6320698261261,-0.8951253844999999,-0.015509016599999998,0.08650808609999999,-0.43703871669999994,0.052001820000000004,0.032043375,-1.003964715,0.395508096,0.08972174399999999,0.251159848,-2.7795338999999997,-9.6899166,52.2838017,347.2186660045366,29.73534393310547,-91.20614624023438,0.0,3.9674786079278244
37.78132700920105,-0.8946554143,-0.015341170099999999,0.0865752247,-0.4380122264,0.21203559,-0.00402831,-1.003964715,0.395508096,0.08972174399999999,0.247802912,-2.8124928,-9.6899166,52.404650999999994,347.2186660045366,29.73534393310547,-91.20614624023438,0.0,3.9674786079278244
37.88360595703125,-0.8942190133999999,-0.015609724499999998,0.0863402396,-0.43891859749999995,0.123962085,-0.023986755000000002,-1.051938225,0.395813272,0.08666998399999999,0.251159848,-2.7795338999999997,-9.6789303,52.5255003,347.64905624213145,29.73534393310547,-91.20614624023438,0.0,3.9674786079278244
37.98778295516968,-0.8932455036999999,-0.015441878,0.0858367001,-0.43928785979999996,0.127990395,-0.00402831,-1.103940045,0.392761512,0.08666998399999999,0.251159848,-2.7905202,-9.623998799999999,52.6024044,347.55606787942952,29.73534393310547,-91.20614624023438,0.0,3.9674786079278244
38.08381199836731,-0.8936483352999999,-0.015274031499999998,0.08563528429999999,-0.4402949388,0.028015065,0.043945200000000004,-0.947934585,0.392761512,0.08972174399999999,0.247802912,-2.7905202,-9.5800536,52.6902948,347.13225152972319,29.735374450683594,-91.20614624023438,0.0,3.9523562154168603
38.17686986923218,-0.8924734097999999,-0.015307600799999998,0.08580313079999999,-0.44059706249999997,0.13201870500000001,0.05603013,-1.02795147,0.392761512,0.092468328,0.251159848,-2.8124928,-9.6130125,52.800157799999994,346.75203617430338,29.735374450683594,-91.20614624023438,0.0,3.9523562154168603
38.285502910614014,-0.8927755334999999,-0.015274031499999998,0.08587026939999999,-0.44197340379999994,0.11206026,0.015930135,-0.955991205,0.395813272,0.08697516,0.24444597599999998,-2.8234790999999997,-9.6020262,52.9100208,347.60690857756975,29.735374450683594,-91.20614624023438,0.0,3.9523562154168603
38.38946795463562,-0.8923391326,-0.015106185,0.0853331606,-0.4429469135,0.188048835,0.023986755000000002,-1.020077955,0.395813272,0.08666998399999999,0.254211608,-2.8234790999999997,-9.5361084,53.030870099999994,347.64905624213145,29.735374450683594,-91.20614624023438,0.0,3.9523562154168603
38.485546827316284,-0.8920034396,-0.014736922699999998,0.08516531409999999,-0.44368543809999994,0.236022345,0.00402831,-0.964047825,0.393066688,0.083618224,0.251159848,-2.8674242999999997,-9.492163199999998,53.1297468,347.99033259345293,29.735374450683594,-91.20614624023438,0.0,3.9523562154168603
38.590396881103516,-0.891600608,-0.0142669525,0.08513174479999999,-0.44452467059999995,0.084045195,-0.00402831,-1.04406471,0.390014928,0.08666998399999999,0.254211608,-2.9223557999999996,-9.470190599999999,53.2396098,347.47119229084848,29.735374450683594,-91.20614624023438,0.0,3.9523562154168603
38.73948097229004,-0.8910634991999999,-0.013796982299999998,0.08513174479999999,-0.4455988882,0.10400364000000001,-0.00805662,-1.02795147,0.390014928,0.0839234,0.247802912,-2.9772873,-9.4372317,53.3824317,347.85626433406287,29.735374450683594,-91.20614624023438,0.0,3.9523562154168603
38.84173583984375,-0.8907613754999999,-0.0133941507,0.0851988834,-0.4461695663,0.14794884,0.023986755000000002,-1.003964715,0.390320104,0.083618224,0.254211608,-3.0322188,-9.426245399999999,53.4593358,347.90830228754675,29.735374450683594,-91.20614624023438,0.0,3.9523562154168603
38.94549584388733,-0.8895193114,-0.0131927349,0.08529959129999999,-0.4463709821,0.088073505,0.00805662,-0.94006107,0.387268344,0.08666998399999999,0.254211608,-3.076164,-9.426245399999999,53.558212499999996,347.38516983223445,29.735374450683594,-91.20614624023438,0.0,3.9523562154168603
39.03082895278931,-0.8901235587999999,-0.012823472599999998,0.0854338685,-0.44747876899999994,0.14794884,0.0,-0.943906275,0.393066688,0.075073296,0.251159848,-3.1201092,-9.4152591,53.635116599999996,349.18708694813051,29.735374450683594,-91.20614624023438,0.0,3.9523562154168603
39.14798283576965,-0.8889822025999999,-0.0125549182,0.0855010071,-0.4476130462,0.11206026,0.00402831,-0.99206289,0.393066688,0.07781988,0.251159848,-3.1640544,-9.4152591,53.7120207,348.80132132695888,29.73540687561035,-91.2061538696289,348.45271938213114,3.8253531837369388
39.24451398849487,-0.8894857421,-0.012722764699999998,0.08597097729999999,-0.44858655589999996,0.14392053,0.019958445000000002,-1.0319797800000001,0.390320104,0.083618224,0.254211608,-3.1640544,-9.4592043,53.7889248,347.90830228754675,29.73540687561035,-91.2061538696289,348.45271938213114,3.8253531837369388
39.34683799743652,-0.8884115244999999,-0.012890611199999999,0.0862395317,-0.44872083309999994,0.11206026,0.028015065,-1.02795147,0.393066688,0.08087164,0.251159848,-3.1750407,-9.5031495,53.8658289,348.37389715699749,29.73540687561035,-91.2061538696289,348.45271938213114,3.8253531837369388
39.44729399681091,-0.888915064,-0.012689195399999999,0.0861723931,-0.4496943428,0.175963905,0.00402831,-0.88403094,0.395813272,0.080566464,0.254211608,-3.1970132999999996,-9.4811769,53.9317467,348.4948092910945,29.73540687561035,-91.2061538696289,348.45271938213114,3.8253531837369388
39.59701085090637,-0.8886800788999999,-0.0125213489,0.0863402396,-0.45013074369999995,0.13201870500000001,0.028015065,-1.04406471,0.393066688,0.0839234,0.247802912,-3.2189859,-9.4811769,53.9976645,347.94778101312966,29.73540687561035,-91.2061538696289,348.45271938213114,3.8253531837369388
39.698877811431885,-0.8886129402999999,-0.0119842401,0.08650808609999999,-0.4502650209,0.16406208,0.036071685,-0.968076135,0.390320104,0.07781988,0.254211608,-3.2849036999999996,-9.470190599999999,54.0196371,348.7245311485982,29.73540687561035,-91.2061538696289,348.45271938213114,3.8253531837369388
39.79934883117676,-0.8885458017,-0.011614977799999999,0.08660879399999999,-0.4503657288,0.20800728000000002,0.019958445000000002,-1.007993025,0.390320104,0.07781988,0.251159848,-3.3398351999999996,-9.4592043,54.030623399999996,348.7245311485982,29.73540687561035,-91.2061538696289,348.45271938213114,3.8253531837369388
39.903801918029785,-0.8877401384999999,-0.011178576899999999,0.08677664049999999,-0.44999646649999997,0.00805662,0.01208493,-1.02392316,0.390320104,0.068969776,0.254211608,-3.3947667,-9.448217999999999,54.041609699999995,349.97924294095122,29.73540687561035,-91.2061538696289,348.45271938213114,3.8253531837369388
39.99956679344177,-0.8884115244999999,-0.0108093146,0.0867095019,-0.4506342832,0.271910925,-0.00805662,-0.999936405,0.395813272,0.072021536,0.247802912,-3.4277255999999996,-9.426245399999999,54.0745686,349.68737881393139,29.73540687561035,-91.2061538696289,348.45271938213114,3.8253531837369388
40.10505700111389,-0.8875722919999999,-0.0103729137,0.0867430712,-0.45029859019999996,0.119933775,0.023986755000000002,-1.007993025,0.390320104,0.075073296,0.251159848,-3.4826571,-9.4152591,54.0855549,349.11281142755047,29.73540687561035,-91.2061538696289,348.45271938213114,3.8253531837369388
40.205047845840454,-0.8882772472999999,-0.01007079,0.0866423633,-0.45096997619999996,0.043945200000000004,0.036071685,-0.9080176950000001,0.398559856,0.075073296,0.247802912,-3.5046296999999997,-9.3823002,54.118513799999995,349.33267329030264,29.73543930053711,-91.2061538696289,0.0,3.3927795643138783
40.30686283111572,-0.8874715840999999,-0.0096679584,0.08650808609999999,-0.45060071389999995,0.188048835,0.032043375,-1.03600809,0.390320104,0.072021536,0.247802912,-3.5375886,-9.371313899999999,54.129500099999994,349.54542279296641,29.73543930053711,-91.2061538696289,0.0,3.3927795643138783
40.45549392700195,-0.8881765394,-0.009701527699999999,0.08667593259999999,-0.45113782269999997,0.14392053,0.00402831,-1.003964715,0.393371864,0.063171432,0.251159848,-3.5375886,-9.3603276,54.14048639999999,350.87678750023349,29.73543930053711,-91.2061538696289,0.0,3.3927795643138783
40.55682587623596,-0.8881429700999999,-0.010137928599999999,0.0868102098,-0.45117139199999995,0.075988575,0.00402831,-1.04406471,0.395813272,0.072021536,0.247802912,-3.5046296999999997,-9.4042728,54.1514727,349.68737881393139,29.73543930053711,-91.2061538696289,0.0,3.3927795643138783
40.6574490070343,-0.8881765394,-0.010238636499999999,0.0868102098,-0.45113782269999997,0.13201870500000001,0.032043375,-1.02795147,0.395813272,0.068969776,0.251159848,-3.4936434,-9.4042728,54.14048639999999,350.11555119015418,29.73543930053711,-91.2061538696289,0.0,3.3927795643138783
40.759389877319336,-0.8882436779999999,-0.0099700821,0.0861723931,-0.45113782269999997,0.179992215,0.028015065,-1.051938225,0.395813272,0.075073296,0.251159848,-3.4826571,-9.3273687,54.14048639999999,349.26036769687329,29.73543930053711,-91.2061538696289,0.0,3.3927795643138783
40.86280298233032,-0.8874715840999999,-0.009902943499999999,0.08610525449999999,-0.4505335753,0.047973510000000004,0.015930135,-0.98400627,0.393066688,0.072021536,0.247802912,-3.4936434,-9.3163824,54.118513799999995,349.61688065709501,29.73543930053711,-91.2061538696289,0.0,3.3927795643138783
40.9582200050354,-0.8884115244999999,-0.009802235599999999,0.0859038387,-0.450835699,0.088073505,0.0,-1.13195511,0.393066688,0.066223192,0.247802912,-3.4936434,-9.294409799999999,54.0965412,350.43671617045692,29.73543930053711,-91.2061538696289,0.0,3.3927795643138783
41.06318283081055,-0.8876394306,-0.0096679584,0.085601715,-0.45029859019999996,0.15197715,-0.00402831,-0.98400627,0.393066688,0.069274952,0.247802912,-3.4936434,-9.272437199999999,54.0745686,350.00470916932011,29.73543930053711,-91.2061538696289,0.0,3.3927795643138783
41.20390200614929,-0.888579371,-0.009735097,0.08563528429999999,-0.4505335753,0.10400364000000001,0.023986755000000002,-1.02392316,0.398865032,0.068969776,0.254211608,-3.4716707999999996,-9.2614509,54.052595999999994,350.18970324091663,29.735469818115234,-91.20616149902344,347.75219569322354,3.8140764824007793
41.313395977020264,-0.8886800788999999,-0.009936512799999998,0.085601715,-0.45033215949999994,0.2160639,0.043945200000000004,-1.02392316,0.393066688,0.072021536,0.251159848,-3.4496982,-9.272437199999999,54.0196371,349.61688065709501,29.735469818115234,-91.20616149902344,347.75219569322354,3.8140764824007793
41.41824984550476,-0.8888479253999999,-0.01007079,0.0857359922,-0.45003003579999995,0.047973510000000004,0.039916890000000003,-1.072079775,0.393066688,0.07476812,0.254211608,-3.4387119,-9.294409799999999,53.98667819999999,349.2300117673829,29.735469818115234,-91.20616149902344,347.75219569322354,3.8140764824007793
41.51445698738098,-0.8890157718999999,-0.01007079,0.08553457639999999,-0.44972791209999996,0.24792417,0.032043375,-0.999936405,0.393066688,0.075073296,0.251159848,-3.4277255999999996,-9.272437199999999,53.942733,349.18708694813051,29.735469818115234,-91.20616149902344,347.75219569322354,3.8140764824007793
41.616026878356934,-0.8890829104999999,-0.0102722058,0.085601715,-0.44956006559999995,0.13201870500000001,0.039916890000000003,-1.07995329,0.395813272,0.072021536,0.251159848,-3.405753,-9.294409799999999,53.9207604,349.68737881393139,29.735469818115234,-91.20616149902344,347.75219569322354,3.8140764824007793
41.716471910476685,-0.8892171876999999,-0.010440052299999999,0.0857695615,-0.44925794189999996,0.10400364000000001,0.015930135,-0.955991205,0.390320104,0.072021536,0.247802912,-3.405753,-9.3163824,53.887801499999995,349.54542279296641,29.735469818115234,-91.20616149902344,347.75219569322354,3.8140764824007793
41.82039284706116,-0.8883779552,-0.0105071909,0.0855010071,-0.44872083309999994,0.16406208,-0.01208493,-0.947934585,0.395813272,0.072021536,0.247802912,-3.3947667,-9.3163824,53.8658289,349.68737881393139,29.735469818115234,-91.20616149902344,347.75219569322354,3.8140764824007793
41.92102885246277,-0.8894186034999999,-0.010540760199999999,0.0857359922,-0.448821541,0.10400364000000001,0.023986755000000002,-0.97997796,0.393066688,0.07781988,0.251159848,-3.3837803999999996,-9.3163824,53.83286999999999,348.80132132695888,29.735469818115234,-91.20616149902344,347.75219569322354,3.8140764824007793
42.02389693260193,-0.888915064,-0.0104736216,0.08570242289999999,-0.44831800149999995,0.084045195,0.0,-1.14404004,0.390320104,0.07476812,0.254211608,-3.3947667,-9.3163824,53.799911099999996,349.15601690650038,29.735469818115234,-91.20616149902344,347.75219569322354,3.8140764824007793
42.11987900733948,-0.8897207272,-0.010440052299999999,0.08587026939999999,-0.44825086289999994,0.119933775,0.039916890000000003,-1.07995329,0.393066688,0.07781988,0.251159848,-3.3947667,-9.3273687,53.75596589999999,348.80132132695888,29.735469818115234,-91.20616149902344,347.75219569322354,3.8140764824007793
42.26102900505066,-0.8899557122999999,-0.010440052299999999,0.08603811589999999,-0.44771375409999997,0.14392053,0.05603013,-0.97192134,0.395813272,0.07476812,0.254211608,-3.3947667,-9.349341299999999,53.6900481,349.30301533412131,29.735504150390625,-91.20616149902344,0.0,3.7794781917750857
42.37182593345642,-0.8901235587999999,-0.0103729137,0.0861723931,-0.44734449179999997,0.10803195,-0.00402831,-0.995908095,0.390320104,0.078125056,0.247802912,-3.405753,-9.3603276,53.646102899999995,348.68145291478129,29.735504150390625,-91.20616149902344,0.0,3.7794781917750857
42.47335195541382,-0.8903921131999999,-0.0101714979,0.08597097729999999,-0.44690809089999994,0.119933775,0.01208493,-0.98803458,0.390320104,0.08087164,0.251159848,-3.4167392999999997,-9.338355,53.580185099999994,348.29433720346378,29.735504150390625,-91.20616149902344,0.0,3.7794781917750857
42.57493185997009,-0.8905935289999999,-0.010104359299999999,0.08593740799999999,-0.44647169,0.16809039,0.015930135,-1.07995329,0.393066688,0.075073296,0.251159848,-3.4167392999999997,-9.3273687,53.5252536,349.18708694813051,29.735504150390625,-91.20616149902344,0.0,3.7794781917750857
42.676156997680664,-0.8907613754999999,-0.0104736216,0.08593740799999999,-0.44613599699999995,0.179992215,0.047973510000000004,-1.07995329,0.390320104,0.07476812,0.254211608,-3.3727940999999997,-9.349341299999999,53.481308399999996,349.15601690650038,29.735504150390625,-91.20616149902344,0.0,3.7794781917750857
42.77959084510803,-0.8901571280999999,-0.010641468099999999,0.08563528429999999,-0.44536390309999996,0.11206026,-0.00402831,-1.016049645,0.38757352,0.080566464,0.254211608,-3.3398351999999996,-9.338355,53.43736319999999,348.25693562336801,29.735504150390625,-91.20616149902344,0.0,3.7794781917750857
42.86535286903381,-0.8911977764,-0.010876453199999999,0.08556814569999999,-0.4453303338,0.11206026,0.023986755000000002,-0.947934585,0.38757352,0.075073296,0.251159848,-3.3068763,-9.338355,53.3714454,349.03752099576815,29.735504150390625,-91.20616149902344,0.0,3.7794781917750857
43.03007984161377,-0.8914327615,-0.011514269899999999,0.0860716852,-0.4447596557,0.036071685,0.00805662,-0.951962895,0.393066688,0.07781988,0.254211608,-3.2519448,-9.4152591,53.3055276,348.80132132695888,29.735504150390625,-91.20616149902344,0.0,3.7794781917750857
43.13165283203125,-0.8917013158999999,-0.011514269899999999,0.0860716852,-0.44422254689999996,0.16406208,0.032043375,-1.047909915,0.393066688,0.078125056,0.247802912,-3.2519448,-9.426245399999999,53.2286235,348.75852123237354,29.735536575317383,-91.20616149902344,0.0,4.1906882592499288
43.23295497894287,-0.8918691623999999,-0.0116821164,0.08593740799999999,-0.4438868539,0.127990395,0.052001820000000004,-0.8519875650000001,0.38757352,0.07781988,0.251159848,-3.2189859,-9.426245399999999,53.184678299999995,348.64669449905426,29.735536575317383,-91.20616149902344,0.0,4.1906882592499288
43.33747887611389,-0.8920034396,-0.012051378699999999,0.0857359922,-0.44365186879999996,0.09191871,-0.05603013,-1.08800991,0.390320104,0.08087164,0.247802912,-3.1640544,-9.4152591,53.1517194,348.29433720346378,29.735536575317383,-91.20616149902344,0.0,4.1906882592499288
43.432262897491455,-0.8922048553999999,-0.0119842401,0.08587026939999999,-0.44318189859999996,0.019958445000000002,0.043945200000000004,-1.047909915,0.390320104,0.08087164,0.251159848,-3.1860269999999997,-9.426245399999999,53.096787899999995,348.29433720346378,29.735536575317383,-91.20616149902344,0.0,4.1906882592499288
43.5340518951416,-0.8924734097999999,-0.011749254999999998,0.08593740799999999,-0.4426783591,0.136047015,0.047973510000000004,-1.020077955,0.393066688,0.078125056,0.247802912,-3.2079996,-9.426245399999999,53.030870099999994,348.75852123237354,29.735536575317383,-91.20616149902344,0.0,4.1906882592499288
43.63516592979431,-0.8927755334999999,-0.0113464234,0.0858367001,-0.44207411169999994,0.136047015,0.036071685,-1.14404004,0.384826936,0.075073296,0.251159848,-3.2299721999999997,-9.393286499999999,52.953965999999994,348.96119497328402,29.735536575317383,-91.20616149902344,0.0,4.1906882592499288
43.739452838897705,-0.8921712861,-0.011279284799999999,0.0856688536,-0.44116774059999997,0.09594702000000001,0.019958445000000002,-0.968076135,0.38757352,0.075073296,0.251159848,-3.2299721999999997,-9.3823002,52.88804819999999,349.03752099576815,29.735536575317383,-91.20616149902344,0.0,4.1906882592499288
43.83484697341919,-0.8932119343999999,-0.0114807006,0.08593740799999999,-0.44116774059999997,0.188048835,0.015930135,-1.016049645,0.387268344,0.08087164,0.251159848,-3.2189859,-9.4152591,52.8331167,348.20466860144654,29.735536575317383,-91.20616149902344,0.0,4.1906882592499288
43.98800802230835,-0.8935476273999999,-0.011816393599999999,0.08563528429999999,-0.44052992389999995,0.023986755000000002,0.015930135,-0.895932765,0.38757352,0.080566464,0.257568544,-3.1530680999999996,-9.4042728,52.7452263,348.25693562336801,29.735536575317383,-91.20616149902344,0.0,4.1906882592499288
44.08855700492859,-0.8938833204,-0.011816393599999999,0.0855010071,-0.4399256765,0.15600546,0.028015065,-0.97997796,0.390320104,0.083618224,0.254211608,-3.1420817999999997,-9.393286499999999,52.6683222,347.90830228754675,29.735536575317383,-91.20616149902344,0.0,4.1906882592499288
44.191030979156494,-0.8941518747999999,-0.011917101499999999,0.08546743779999999,-0.4393549984,0.136047015,0.00402831,-0.88403094,0.387268344,0.08087164,0.247802912,-3.1310955,-9.393286499999999,52.5914181,348.20466860144654,29.735567092895508,-91.20616912841797,347.75220722972421,3.4370032199281217
44.29515981674194,-0.8944539985,-0.0119842401,0.0853331606,-0.4387843203,0.11206026,0.032043375,-0.968076135,0.381775176,0.083618224,0.257568544,-3.1091228999999996,-9.393286499999999,52.514514,347.64588879890385,29.735567092895508,-91.20616912841797,347.75220722972421,3.4370032199281217
44.391834020614624,-0.8947225528999999,-0.012152086599999999,0.08506460619999999,-0.43831435009999997,0.179992215,0.0,-0.87597432,0.387268344,0.08666998399999999,0.251159848,-3.0651776999999996,-9.371313899999999,52.4485962,347.38516983223445,29.735567092895508,-91.20616912841797,347.75220722972421,3.4370032199281217
44.49343395233154,-0.8948903993999999,-0.012185655899999998,0.08482962109999999,-0.43794508779999997,0.14794884,-0.00402831,-0.947934585,0.390320104,0.080566464,0.254211608,-3.0541913999999997,-9.349341299999999,52.404650999999994,348.33729724878236,29.735567092895508,-91.20616912841797,347.75220722972421,3.4370032199281217
44.594244956970215,-0.8952260924,-0.012286363799999998,0.0847624825,-0.43730727109999995,0.2600091,0.039916890000000003,-0.93603276,0.381775176,0.08666998399999999,0.254211608,-3.0322188,-9.349341299999999,52.316760599999995,347.20959166565001,29.735567092895508,-91.20616912841797,347.75220722972421,3.4370032199281217
44.699713945388794,-0.894621845,-0.012789903299999999,0.08546743779999999,-0.4360316377,-0.00402831,0.043945200000000004,-0.9279761400000001,0.387268344,0.083618224,0.254211608,-2.9992598999999998,-9.4372317,52.228870199999996,347.81585319532724,29.735567092895508,-91.20616912841797,347.75220722972421,3.4370032199281217
44.850297927856445,-0.8959981862999999,-0.012789903299999999,0.0853667299,-0.43559523679999995,0.20397897,-0.019958445000000002,-0.947934585,0.387268344,0.08972174399999999,0.247802912,-2.9882736,-9.448217999999999,52.09703459999999,346.95593062282074,29.735567092895508,-91.20616912841797,347.75220722972421,3.4370032199281217
44.94741487503052,-0.8963003099999999,-0.012823472599999998,0.085266022,-0.4349574201,0.219909105,0.023986755000000002,-0.97594965,0.387268344,0.083618224,0.251159848,-2.9772873,-9.4372317,52.02013049999999,347.81585319532724,29.735567092895508,-91.20616912841797,347.75220722972421,3.4370032199281217
45.0474739074707,-0.8965352951,-0.0130584577,0.08523245269999999,-0.4344874499,0.075988575,-0.019958445000000002,-1.0319797800000001,0.387268344,0.083618224,0.254211608,-2.9443284,-9.448217999999999,51.9542127,347.81585319532724,29.735567092895508,-91.20616912841797,347.75220722972421,3.4370032199281217
45.14957284927368,-0.8968038494999999,-0.013360581399999998,0.0853331606,-0.43395034109999997,0.11206026,0.023986755000000002,-0.8679177,0.387268344,0.089416568,0.257568544,-2.9113694999999997,-9.4811769,51.8882949,346.99878839002872,29.735567092895508,-91.20616912841797,347.75220722972421,3.4370032199281217
45.253952980041504,-0.8970388345999999,-0.013427719999999999,0.08540029919999999,-0.43341323229999995,0.16406208,0.047973510000000004,-1.07995329,0.38452176,0.089416568,0.254211608,-2.9003832,-9.492163199999998,51.8113908,346.90911018866501,29.735595703125,-91.20616149902344,13.037242371060984,3.4072675274450424
45.35026478767395,-0.8973409582999999,-0.013528427899999999,0.0853331606,-0.43280898489999997,0.09997533,0.00805662,-0.93200445,0.390014928,0.089416568,0.254211608,-2.8784105999999996,-9.492163199999998,51.7344867,347.08726701947262,29.735595703125,-91.20616149902344,13.037242371060984,3.4072675274450424
